onset	duration	sample	trial_type	response_time	stim_file	item_name	serialpos	list	test	answer	stimulation	stim_list	stim_duration	anode_label	cathode_label	amplitude	pulse_freq	n_pulses	pulse_width	experiment	session	subject
0.0	15.627	69378	SESS_START	n/a	n/a	n/a	-999	-999	[0, 0, 0]	n/a	0	0	0	n/a	n/a	0.0	0	0	0	FR2	1	R1022J
15.627	10.0	85004	COUNTDOWN_START	n/a	n/a	n/a	-999	-999	[0, 0, 0]	n/a	0	0	0	n/a	n/a	0.0	0	0	0	FR2	1	R1022J
26.055	3.83	95432	COUNTDOWN_END	n/a	n/a	n/a	-999	-999	[0, 0, 0]	n/a	0	0	0	n/a	n/a	0.0	0	0	0	FR2	1	R1022J
29.885	1.6	99262	PRACTICE_WORD	n/a	n/a	TONGUE	1	-1	[0, 0, 0]	n/a	0	0	0	n/a	n/a	0.0	0	0	0	FR2	1	R1022J
32.423	1.6	101800	PRACTICE_WORD	n/a	n/a	WATCH	2	-1	[0, 0, 0]	n/a	0	0	0	n/a	n/a	0.0	0	0	0	FR2	1	R1022J
35.043	1.6	104420	PRACTICE_WORD	n/a	n/a	BEAM	3	-1	[0, 0, 0]	n/a	0	0	0	n/a	n/a	0.0	0	0	0	FR2	1	R1022J
37.664	1.6	107041	PRACTICE_WORD	n/a	n/a	RING	4	-1	[0, 0, 0]	n/a	0	0	0	n/a	n/a	0.0	0	0	0	FR2	1	R1022J
40.27	1.6	109647	PRACTICE_WORD	n/a	n/a	IRON	5	-1	[0, 0, 0]	n/a	0	0	0	n/a	n/a	0.0	0	0	0	FR2	1	R1022J
42.756	1.6	112132	PRACTICE_WORD	n/a	n/a	FLOOD	6	-1	[0, 0, 0]	n/a	0	0	0	n/a	n/a	0.0	0	0	0	FR2	1	R1022J
45.244	1.6	114620	PRACTICE_WORD	n/a	n/a	ATTIC	7	-1	[0, 0, 0]	n/a	0	0	0	n/a	n/a	0.0	0	0	0	FR2	1	R1022J
47.681	1.6	117057	PRACTICE_WORD	n/a	n/a	CHEST	8	-1	[0, 0, 0]	n/a	0	0	0	n/a	n/a	0.0	0	0	0	FR2	1	R1022J
50.085	1.6	119461	PRACTICE_WORD	n/a	n/a	COTTON	9	-1	[0, 0, 0]	n/a	0	0	0	n/a	n/a	0.0	0	0	0	FR2	1	R1022J
52.54	1.6	121916	PRACTICE_WORD	n/a	n/a	CAMEL	10	-1	[0, 0, 0]	n/a	0	0	0	n/a	n/a	0.0	0	0	0	FR2	1	R1022J
55.144	1.6	124520	PRACTICE_WORD	n/a	n/a	WAGON	11	-1	[0, 0, 0]	n/a	0	0	0	n/a	n/a	0.0	0	0	0	FR2	1	R1022J
57.565	1.6	126941	PRACTICE_WORD	n/a	n/a	RHINO	12	-1	[0, 0, 0]	n/a	0	0	0	n/a	n/a	0.0	0	0	0	FR2	1	R1022J
59.184	0.0	128560	PRACTICE_DISTRACT_START	n/a	n/a	n/a	-999	-1	[0, 0, 0]	n/a	0	0	0	n/a	n/a	0.0	0	0	0	FR2	1	R1022J
59.184	0.05	128560	START	n/a	n/a	n/a	-999	-1	[-999, -999, -999]	n/a	0	0	0	n/a	n/a	0.0	0	0	0	FR2	1	R1022J
59.234	3.74	128610	PROB	3.712	n/a	n/a	-999	-1	[3, 7, 3]	13	0	0	0	n/a	n/a	0.0	0	0	0	FR2	1	R1022J
62.974	3.507	132350	PROB	3.477	n/a	n/a	-999	-1	[1, 1, 9]	11	0	0	0	n/a	n/a	0.0	0	0	0	FR2	1	R1022J
66.481	6.309	135857	PROB	6.272	n/a	n/a	-999	-1	[5, 3, 8]	16	0	0	0	n/a	n/a	0.0	0	0	0	FR2	1	R1022J
72.79	5.594	142165	PROB	5.564	n/a	n/a	-999	-1	[7, 5, 6]	18	0	0	0	n/a	n/a	0.0	0	0	0	FR2	1	R1022J
78.384	13.673	147759	PROB	13.673	n/a	n/a	-999	-1	[6, 8, 9]	23	0	0	0	n/a	n/a	0.0	0	0	0	FR2	1	R1022J
92.057	0.016	161432	STOP	n/a	n/a	n/a	-999	-1	[-999, -999, -999]	n/a	0	0	0	n/a	n/a	0.0	0	0	0	FR2	1	R1022J
92.073	0.619	161448	PRACTICE_DISTRACT_END	n/a	n/a	n/a	-999	-1	[0, 0, 0]	n/a	0	0	0	n/a	n/a	0.0	0	0	0	FR2	1	R1022J
92.692	30.516	162067	PRACTICE_REC_START	n/a	n/a	n/a	-999	-1	[0, 0, 0]	n/a	0	0	0	n/a	n/a	0.0	0	0	0	FR2	1	R1022J
123.208	3.907	192582	PRACTICE_REC_END	n/a	n/a	n/a	-999	-1	[0, 0, 0]	n/a	0	0	0	n/a	n/a	0.0	0	0	0	FR2	1	R1022J
127.115	0.0	196488	TRIAL	n/a	n/a	n/a	-999	1	[0, 0, 0]	n/a	0	1	0	n/a	n/a	0.0	0	0	0	FR2	1	R1022J
127.115	10.0	196488	COUNTDOWN_START	n/a	n/a	n/a	-999	1	[0, 0, 0]	n/a	0	1	0	n/a	n/a	0.0	0	0	0	FR2	1	R1022J
137.543	0.006	206916	COUNTDOWN_END	n/a	n/a	n/a	-999	1	[0, 0, 0]	n/a	0	1	0	n/a	n/a	0.0	0	0	0	FR2	1	R1022J
137.549	1.6	206922	ORIENT	n/a	n/a	n/a	-999	1	[0, 0, 0]	n/a	0	1	0	n/a	n/a	0.0	0	0	0	FR2	1	R1022J
139.758	4.6	209131	STIM_ON	n/a	n/a	n/a	-999	1	[0, 0, 0]	n/a	1	1	4600	LB3	LB4	1000.0	50	230	300	FR2	1	R1022J
139.97	1.6	209343	WORD	n/a	wordpools/wordpool_EN.txt	CLOUD	1	1	[0, 0, 0]	n/a	1	1	4600	LB3	LB4	1000.0	50	230	300	FR2	1	R1022J
142.358	1.6	211731	WORD	n/a	wordpools/wordpool_EN.txt	JUDGE	2	1	[0, 0, 0]	n/a	1	1	4600	LB3	LB4	1000.0	50	230	300	FR2	1	R1022J
144.795	1.6	214168	WORD	n/a	wordpools/wordpool_EN.txt	WHALE	3	1	[0, 0, 0]	n/a	0	1	0	n/a	n/a	0.0	0	0	0	FR2	1	R1022J
147.215	1.6	216588	WORD	n/a	wordpools/wordpool_EN.txt	HORSE	4	1	[0, 0, 0]	n/a	0	1	0	n/a	n/a	0.0	0	0	0	FR2	1	R1022J
149.514	4.6	218887	STIM_ON	n/a	n/a	n/a	-999	1	[0, 0, 0]	n/a	1	1	4600	LB3	LB4	1000.0	50	230	300	FR2	1	R1022J
149.72	1.6	219093	WORD	n/a	wordpools/wordpool_EN.txt	BEACH	5	1	[0, 0, 0]	n/a	1	1	4600	LB3	LB4	1000.0	50	230	300	FR2	1	R1022J
152.224	1.6	221597	WORD	n/a	wordpools/wordpool_EN.txt	STAR	6	1	[0, 0, 0]	n/a	1	1	4600	LB3	LB4	1000.0	50	230	300	FR2	1	R1022J
154.662	1.6	224034	WORD	n/a	wordpools/wordpool_EN.txt	WAVE	7	1	[0, 0, 0]	n/a	0	1	0	n/a	n/a	0.0	0	0	0	FR2	1	R1022J
157.065	1.6	226437	WORD	n/a	wordpools/wordpool_EN.txt	SMOKE	8	1	[0, 0, 0]	n/a	0	1	0	n/a	n/a	0.0	0	0	0	FR2	1	R1022J
159.334	4.6	228706	STIM_ON	n/a	n/a	n/a	-999	1	[0, 0, 0]	n/a	1	1	4600	LB3	LB4	1000.0	50	230	300	FR2	1	R1022J
159.553	1.6	228925	WORD	n/a	wordpools/wordpool_EN.txt	HEN	9	1	[0, 0, 0]	n/a	1	1	4600	LB3	LB4	1000.0	50	230	300	FR2	1	R1022J
162.057	1.6	231429	WORD	n/a	wordpools/wordpool_EN.txt	HEART	10	1	[0, 0, 0]	n/a	1	1	4600	LB3	LB4	1000.0	50	230	300	FR2	1	R1022J
164.479	1.6	233851	WORD	n/a	wordpools/wordpool_EN.txt	GLOVE	11	1	[0, 0, 0]	n/a	0	1	0	n/a	n/a	0.0	0	0	0	FR2	1	R1022J
166.949	1.6	236321	WORD	n/a	wordpools/wordpool_EN.txt	VEST	12	1	[0, 0, 0]	n/a	0	1	0	n/a	n/a	0.0	0	0	0	FR2	1	R1022J
168.568	0.001	237940	DISTRACT_START	n/a	n/a	n/a	-999	1	[0, 0, 0]	n/a	0	1	0	n/a	n/a	0.0	0	0	0	FR2	1	R1022J
168.569	0.016	237941	START	n/a	n/a	n/a	-999	1	[-999, -999, -999]	n/a	0	1	0	n/a	n/a	0.0	0	0	0	FR2	1	R1022J
168.585	4.023	237957	PROB	3.992	n/a	n/a	-999	1	[6, 2, 8]	16	0	1	0	n/a	n/a	0.0	0	0	0	FR2	1	R1022J
172.608	7.697	241980	PROB	7.675	n/a	n/a	-999	1	[9, 5, 9]	23	0	1	0	n/a	n/a	0.0	0	0	0	FR2	1	R1022J
180.305	3.238	249676	PROB	3.21	n/a	n/a	-999	1	[3, 5, 5]	13	0	1	0	n/a	n/a	0.0	0	0	0	FR2	1	R1022J
183.543	4.792	252914	PROB	4.763	n/a	n/a	-999	1	[7, 6, 6]	19	0	1	0	n/a	n/a	0.0	0	0	0	FR2	1	R1022J
188.335	5.355	257706	PROB	5.355	n/a	n/a	-999	1	[2, 1, 7]	10	0	1	0	n/a	n/a	0.0	0	0	0	FR2	1	R1022J
193.69	0.02	263061	STOP	n/a	n/a	n/a	-999	1	[-999, -999, -999]	n/a	0	1	0	n/a	n/a	0.0	0	0	0	FR2	1	R1022J
193.71	1.612	263081	DISTRACT_END	n/a	n/a	n/a	-999	1	[0, 0, 0]	n/a	0	1	0	n/a	n/a	0.0	0	0	0	FR2	1	R1022J
195.322	3.365	264693	REC_START	n/a	n/a	n/a	-999	1	[0, 0, 0]	n/a	0	1	0	n/a	n/a	0.0	0	0	0	FR2	1	R1022J
198.687	0.74	268058	REC_WORD	3.365	n/a	HORSE	-999	1	[0, 0, 0]	n/a	0	1	0	n/a	n/a	0.0	0	0	0	FR2	1	R1022J
199.427	5.538	268798	REC_WORD	4.105	n/a	FLOOD	-999	1	[0, 0, 0]	n/a	0	1	0	n/a	n/a	0.0	0	0	0	FR2	1	R1022J
204.965	1.908	274336	REC_WORD	9.643	n/a	WAGON	-999	1	[0, 0, 0]	n/a	0	1	0	n/a	n/a	0.0	0	0	0	FR2	1	R1022J
206.873	4.334	276244	REC_WORD	11.551	n/a	CREST	-999	1	[0, 0, 0]	n/a	0	1	0	n/a	n/a	0.0	0	0	0	FR2	1	R1022J
211.207	9.734	280577	REC_WORD	15.885	n/a	CROWN	-999	1	[0, 0, 0]	n/a	0	1	0	n/a	n/a	0.0	0	0	0	FR2	1	R1022J
220.941	3.983	290311	REC_WORD	25.619	n/a	DRAGON	-999	1	[0, 0, 0]	n/a	0	1	0	n/a	n/a	0.0	0	0	0	FR2	1	R1022J
224.924	2.544	294294	REC_END	n/a	n/a	n/a	-999	1	[0, 0, 0]	n/a	0	1	0	n/a	n/a	0.0	0	0	0	FR2	1	R1022J
227.468	0.0	296838	TRIAL	n/a	n/a	n/a	-999	2	[0, 0, 0]	n/a	0	1	0	n/a	n/a	0.0	0	0	0	FR2	1	R1022J
227.468	10.0	296838	COUNTDOWN_START	n/a	n/a	n/a	-999	2	[0, 0, 0]	n/a	0	1	0	n/a	n/a	0.0	0	0	0	FR2	1	R1022J
237.896	0.005	307265	COUNTDOWN_END	n/a	n/a	n/a	-999	2	[0, 0, 0]	n/a	0	1	0	n/a	n/a	0.0	0	0	0	FR2	1	R1022J
237.901	1.6	307270	ORIENT	n/a	n/a	n/a	-999	2	[0, 0, 0]	n/a	0	1	0	n/a	n/a	0.0	0	0	0	FR2	1	R1022J
240.065	4.6	309434	STIM_ON	n/a	n/a	n/a	-999	2	[0, 0, 0]	n/a	1	1	4600	LB3	LB4	1000.0	50	230	300	FR2	1	R1022J
240.274	1.6	309643	WORD	n/a	wordpools/wordpool_EN.txt	HOUSE	1	2	[0, 0, 0]	n/a	1	1	4600	LB3	LB4	1000.0	50	230	300	FR2	1	R1022J
242.693	1.6	312062	WORD	n/a	wordpools/wordpool_EN.txt	MAZE	2	2	[0, 0, 0]	n/a	1	1	4600	LB3	LB4	1000.0	50	230	300	FR2	1	R1022J
245.247	1.6	314616	WORD	n/a	wordpools/wordpool_EN.txt	BATH	3	2	[0, 0, 0]	n/a	0	1	0	n/a	n/a	0.0	0	0	0	FR2	1	R1022J
247.701	1.6	317070	WORD	n/a	wordpools/wordpool_EN.txt	SNAKE	4	2	[0, 0, 0]	n/a	0	1	0	n/a	n/a	0.0	0	0	0	FR2	1	R1022J
250.026	4.6	319395	STIM_ON	n/a	n/a	n/a	-999	2	[0, 0, 0]	n/a	1	1	4600	LB3	LB4	1000.0	50	230	300	FR2	1	R1022J
250.239	1.6	319608	WORD	n/a	wordpools/wordpool_EN.txt	DITCH	5	2	[0, 0, 0]	n/a	1	1	4600	LB3	LB4	1000.0	50	230	300	FR2	1	R1022J
252.81	1.6	322179	WORD	n/a	wordpools/wordpool_EN.txt	STREET	6	2	[0, 0, 0]	n/a	1	1	4600	LB3	LB4	1000.0	50	230	300	FR2	1	R1022J
255.265	1.6	324634	WORD	n/a	wordpools/wordpool_EN.txt	MUD	7	2	[0, 0, 0]	n/a	0	1	0	n/a	n/a	0.0	0	0	0	FR2	1	R1022J
257.885	1.6	327254	WORD	n/a	wordpools/wordpool_EN.txt	SWAMP	8	2	[0, 0, 0]	n/a	0	1	0	n/a	n/a	0.0	0	0	0	FR2	1	R1022J
260.192	4.6	329561	STIM_ON	n/a	n/a	n/a	-999	2	[0, 0, 0]	n/a	1	1	4600	LB3	LB4	1000.0	50	230	300	FR2	1	R1022J
260.407	1.6	329776	WORD	n/a	wordpools/wordpool_EN.txt	VINE	9	2	[0, 0, 0]	n/a	1	1	4600	LB3	LB4	1000.0	50	230	300	FR2	1	R1022J
263.044	1.6	332413	WORD	n/a	wordpools/wordpool_EN.txt	SKY	10	2	[0, 0, 0]	n/a	1	1	4600	LB3	LB4	1000.0	50	230	300	FR2	1	R1022J
265.515	1.6	334883	WORD	n/a	wordpools/wordpool_EN.txt	EEL	11	2	[0, 0, 0]	n/a	0	1	0	n/a	n/a	0.0	0	0	0	FR2	1	R1022J
268.052	1.6	337420	WORD	n/a	wordpools/wordpool_EN.txt	STAIR	12	2	[0, 0, 0]	n/a	0	1	0	n/a	n/a	0.0	0	0	0	FR2	1	R1022J
269.671	0.001	339039	DISTRACT_START	n/a	n/a	n/a	-999	2	[0, 0, 0]	n/a	0	1	0	n/a	n/a	0.0	0	0	0	FR2	1	R1022J
269.672	0.016	339040	START	n/a	n/a	n/a	-999	2	[-999, -999, -999]	n/a	0	1	0	n/a	n/a	0.0	0	0	0	FR2	1	R1022J
269.688	4.524	339056	PROB	4.489	n/a	n/a	-999	2	[2, 6, 1]	9	0	1	0	n/a	n/a	0.0	0	0	0	FR2	1	R1022J
274.212	4.292	343580	PROB	4.263	n/a	n/a	-999	2	[2, 9, 6]	17	0	1	0	n/a	n/a	0.0	0	0	0	FR2	1	R1022J
278.504	4.256	347872	PROB	4.225	n/a	n/a	-999	2	[9, 3, 5]	17	0	1	0	n/a	n/a	0.0	0	0	0	FR2	1	R1022J
282.76	6.696	352128	PROB	6.658	n/a	n/a	-999	2	[3, 1, 6]	10	0	1	0	n/a	n/a	0.0	0	0	0	FR2	1	R1022J
289.456	3.554	358824	PROB	3.554	n/a	n/a	-999	2	[1, 3, 1]	5	0	1	0	n/a	n/a	0.0	0	0	0	FR2	1	R1022J
293.01	0.017	362377	STOP	n/a	n/a	n/a	-999	2	[-999, -999, -999]	n/a	0	1	0	n/a	n/a	0.0	0	0	0	FR2	1	R1022J
293.027	1.036	362394	DISTRACT_END	n/a	n/a	n/a	-999	2	[0, 0, 0]	n/a	0	1	0	n/a	n/a	0.0	0	0	0	FR2	1	R1022J
294.063	4.373	363430	REC_START	n/a	n/a	n/a	-999	2	[0, 0, 0]	n/a	0	1	0	n/a	n/a	0.0	0	0	0	FR2	1	R1022J
298.436	0.83	367803	REC_WORD	4.373	n/a	MUD	-999	2	[0, 0, 0]	n/a	0	1	0	n/a	n/a	0.0	0	0	0	FR2	1	R1022J
299.266	1.826	368633	REC_WORD	5.203	n/a	DITCH	-999	2	[0, 0, 0]	n/a	0	1	0	n/a	n/a	0.0	0	0	0	FR2	1	R1022J
301.092	3.628	370459	REC_WORD	7.029	n/a	WASH	-999	2	[0, 0, 0]	n/a	0	1	0	n/a	n/a	0.0	0	0	0	FR2	1	R1022J
304.72	1.427	374087	REC_WORD	10.657	n/a	SNAKE	-999	2	[0, 0, 0]	n/a	0	1	0	n/a	n/a	0.0	0	0	0	FR2	1	R1022J
306.147	17.929	375514	REC_WORD	12.084	n/a	EEL	-999	2	[0, 0, 0]	n/a	0	1	0	n/a	n/a	0.0	0	0	0	FR2	1	R1022J
324.076	3.394	393442	REC_END	n/a	n/a	n/a	-999	2	[0, 0, 0]	n/a	0	1	0	n/a	n/a	0.0	0	0	0	FR2	1	R1022J
327.47	10.0	396836	COUNTDOWN_START	n/a	n/a	n/a	-999	3	[0, 0, 0]	n/a	0	1	0	n/a	n/a	0.0	0	0	0	FR2	1	R1022J
327.47	10.428	396836	TRIAL	n/a	n/a	n/a	-999	3	[0, 0, 0]	n/a	0	1	0	n/a	n/a	0.0	0	0	0	FR2	1	R1022J
337.898	0.005	407264	COUNTDOWN_END	n/a	n/a	n/a	-999	3	[0, 0, 0]	n/a	0	1	0	n/a	n/a	0.0	0	0	0	FR2	1	R1022J
337.903	1.6	407269	ORIENT	n/a	n/a	n/a	-999	3	[0, 0, 0]	n/a	0	1	0	n/a	n/a	0.0	0	0	0	FR2	1	R1022J
340.325	1.6	409691	WORD	n/a	wordpools/wordpool_EN.txt	MOON	1	3	[0, 0, 0]	n/a	0	1	0	n/a	n/a	0.0	0	0	0	FR2	1	R1022J
342.728	1.6	412094	WORD	n/a	wordpools/wordpool_EN.txt	BEE	2	3	[0, 0, 0]	n/a	0	1	0	n/a	n/a	0.0	0	0	0	FR2	1	R1022J
344.94	4.6	414306	STIM_ON	n/a	n/a	n/a	-999	3	[0, 0, 0]	n/a	1	1	4600	LB3	LB4	1000.0	50	230	300	FR2	1	R1022J
345.148	1.6	414514	WORD	n/a	wordpools/wordpool_EN.txt	SHIP	3	3	[0, 0, 0]	n/a	1	1	4600	LB3	LB4	1000.0	50	230	300	FR2	1	R1022J
347.703	1.6	417068	WORD	n/a	wordpools/wordpool_EN.txt	SAIL	4	3	[0, 0, 0]	n/a	1	1	4600	LB3	LB4	1000.0	50	230	300	FR2	1	R1022J
350.14	1.6	419505	WORD	n/a	wordpools/wordpool_EN.txt	POLE	5	3	[0, 0, 0]	n/a	0	1	0	n/a	n/a	0.0	0	0	0	FR2	1	R1022J
352.761	1.6	422126	WORD	n/a	wordpools/wordpool_EN.txt	EGG	6	3	[0, 0, 0]	n/a	0	1	0	n/a	n/a	0.0	0	0	0	FR2	1	R1022J
355.037	4.6	424402	STIM_ON	n/a	n/a	n/a	-999	3	[0, 0, 0]	n/a	1	1	4600	LB3	LB4	1000.0	50	230	300	FR2	1	R1022J
355.249	1.6	424614	WORD	n/a	wordpools/wordpool_EN.txt	FORT	7	3	[0, 0, 0]	n/a	1	1	4600	LB3	LB4	1000.0	50	230	300	FR2	1	R1022J
357.836	1.6	427201	WORD	n/a	wordpools/wordpool_EN.txt	ZOO	8	3	[0, 0, 0]	n/a	1	1	4600	LB3	LB4	1000.0	50	230	300	FR2	1	R1022J
360.409	1.6	429774	WORD	n/a	wordpools/wordpool_EN.txt	ROCK	9	3	[0, 0, 0]	n/a	0	1	0	n/a	n/a	0.0	0	0	0	FR2	1	R1022J
363.012	1.6	432377	WORD	n/a	wordpools/wordpool_EN.txt	CAT	10	3	[0, 0, 0]	n/a	0	1	0	n/a	n/a	0.0	0	0	0	FR2	1	R1022J
365.208	4.6	434573	STIM_ON	n/a	n/a	n/a	-999	3	[0, 0, 0]	n/a	1	1	4600	LB3	LB4	1000.0	50	230	300	FR2	1	R1022J
365.417	1.6	434782	WORD	n/a	wordpools/wordpool_EN.txt	SHARK	11	3	[0, 0, 0]	n/a	1	1	4600	LB3	LB4	1000.0	50	230	300	FR2	1	R1022J
367.903	1.6	437268	WORD	n/a	wordpools/wordpool_EN.txt	FILM	12	3	[0, 0, 0]	n/a	1	1	4600	LB3	LB4	1000.0	50	230	300	FR2	1	R1022J
369.507	0.001	438872	DISTRACT_START	n/a	n/a	n/a	-999	3	[0, 0, 0]	n/a	1	1	4600	LB3	LB4	1000.0	50	230	300	FR2	1	R1022J
369.508	0.016	438873	START	n/a	n/a	n/a	-999	3	[-999, -999, -999]	n/a	0	1	0	n/a	n/a	0.0	0	0	0	FR2	1	R1022J
369.524	4.573	438889	PROB	4.55	n/a	n/a	-999	3	[2, 7, 1]	10	0	1	0	n/a	n/a	0.0	0	0	0	FR2	1	R1022J
374.097	7.963	443462	PROB	7.928	n/a	n/a	-999	3	[2, 6, 7]	15	0	1	0	n/a	n/a	0.0	0	0	0	FR2	1	R1022J
382.06	3.557	451424	PROB	3.534	n/a	n/a	-999	3	[1, 3, 1]	5	0	1	0	n/a	n/a	0.0	0	0	0	FR2	1	R1022J
385.617	14.273	454981	PROB	14.273	n/a	n/a	-999	3	[8, 9, 6]	23	0	1	0	n/a	n/a	0.0	0	0	0	FR2	1	R1022J
399.89	0.017	469254	STOP	n/a	n/a	n/a	-999	3	[-999, -999, -999]	n/a	0	1	0	n/a	n/a	0.0	0	0	0	FR2	1	R1022J
399.907	1.119	469271	DISTRACT_END	n/a	n/a	n/a	-999	3	[0, 0, 0]	n/a	0	1	0	n/a	n/a	0.0	0	0	0	FR2	1	R1022J
401.026	6.521	470390	REC_START	n/a	n/a	n/a	-999	3	[0, 0, 0]	n/a	0	1	0	n/a	n/a	0.0	0	0	0	FR2	1	R1022J
407.547	0.581	476910	REC_WORD	6.521	n/a	POLE	-999	3	[0, 0, 0]	n/a	0	1	0	n/a	n/a	0.0	0	0	0	FR2	1	R1022J
408.128	0.704	477491	REC_WORD	7.102	n/a	NORTH	-999	3	[0, 0, 0]	n/a	0	1	0	n/a	n/a	0.0	0	0	0	FR2	1	R1022J
408.832	22.215	478195	REC_WORD	7.806	n/a	STAR	-999	3	[0, 0, 0]	n/a	0	1	0	n/a	n/a	0.0	0	0	0	FR2	1	R1022J
431.047	2.617	500409	REC_END	n/a	n/a	n/a	-999	3	[0, 0, 0]	n/a	0	1	0	n/a	n/a	0.0	0	0	0	FR2	1	R1022J
433.664	10.0	503026	COUNTDOWN_START	n/a	n/a	n/a	-999	4	[0, 0, 0]	n/a	0	0	0	n/a	n/a	0.0	0	0	0	FR2	1	R1022J
433.665	10.427	503027	TRIAL	n/a	n/a	n/a	-999	4	[0, 0, 0]	n/a	0	0	0	n/a	n/a	0.0	0	0	0	FR2	1	R1022J
444.092	0.006	513454	COUNTDOWN_END	n/a	n/a	n/a	-999	4	[0, 0, 0]	n/a	0	0	0	n/a	n/a	0.0	0	0	0	FR2	1	R1022J
444.098	1.6	513460	ORIENT	n/a	n/a	n/a	-999	4	[0, 0, 0]	n/a	0	0	0	n/a	n/a	0.0	0	0	0	FR2	1	R1022J
446.719	1.6	516081	WORD	n/a	wordpools/wordpool_EN.txt	AXE	1	4	[0, 0, 0]	n/a	0	0	0	n/a	n/a	0.0	0	0	0	FR2	1	R1022J
449.325	1.6	518687	WORD	n/a	wordpools/wordpool_EN.txt	OWL	2	4	[0, 0, 0]	n/a	0	0	0	n/a	n/a	0.0	0	0	0	FR2	1	R1022J
451.911	1.6	521273	WORD	n/a	wordpools/wordpool_EN.txt	GOAT	3	4	[0, 0, 0]	n/a	0	0	0	n/a	n/a	0.0	0	0	0	FR2	1	R1022J
454.517	1.6	523879	WORD	n/a	wordpools/wordpool_EN.txt	EAR	4	4	[0, 0, 0]	n/a	0	0	0	n/a	n/a	0.0	0	0	0	FR2	1	R1022J
457.037	1.6	526399	WORD	n/a	wordpools/wordpool_EN.txt	RAT	5	4	[0, 0, 0]	n/a	0	0	0	n/a	n/a	0.0	0	0	0	FR2	1	R1022J
459.591	1.6	528952	WORD	n/a	wordpools/wordpool_EN.txt	FORK	6	4	[0, 0, 0]	n/a	0	0	0	n/a	n/a	0.0	0	0	0	FR2	1	R1022J
462.18	1.6	531541	WORD	n/a	wordpools/wordpool_EN.txt	ROPE	7	4	[0, 0, 0]	n/a	0	0	0	n/a	n/a	0.0	0	0	0	FR2	1	R1022J
464.783	1.6	534144	WORD	n/a	wordpools/wordpool_EN.txt	PIPE	8	4	[0, 0, 0]	n/a	0	0	0	n/a	n/a	0.0	0	0	0	FR2	1	R1022J
467.422	1.6	536783	WORD	n/a	wordpools/wordpool_EN.txt	CRANE	9	4	[0, 0, 0]	n/a	0	0	0	n/a	n/a	0.0	0	0	0	FR2	1	R1022J
469.825	1.6	539186	WORD	n/a	wordpools/wordpool_EN.txt	MOUTH	10	4	[0, 0, 0]	n/a	0	0	0	n/a	n/a	0.0	0	0	0	FR2	1	R1022J
472.281	1.6	541642	WORD	n/a	wordpools/wordpool_EN.txt	WAND	11	4	[0, 0, 0]	n/a	0	0	0	n/a	n/a	0.0	0	0	0	FR2	1	R1022J
474.783	1.6	544144	WORD	n/a	wordpools/wordpool_EN.txt	THUMB	12	4	[0, 0, 0]	n/a	0	0	0	n/a	n/a	0.0	0	0	0	FR2	1	R1022J
476.403	0.001	545764	DISTRACT_START	n/a	n/a	n/a	-999	4	[0, 0, 0]	n/a	0	0	0	n/a	n/a	0.0	0	0	0	FR2	1	R1022J
476.404	0.016	545765	START	n/a	n/a	n/a	-999	4	[-999, -999, -999]	n/a	0	0	0	n/a	n/a	0.0	0	0	0	FR2	1	R1022J
476.42	8.564	545781	PROB	8.525	n/a	n/a	-999	4	[5, 7, 1]	13	0	0	0	n/a	n/a	0.0	0	0	0	FR2	1	R1022J
484.984	6.611	554345	PROB	6.585	n/a	n/a	-999	4	[4, 3, 5]	12	0	0	0	n/a	n/a	0.0	0	0	0	FR2	1	R1022J
491.595	4.173	560955	PROB	4.151	n/a	n/a	-999	4	[9, 7, 2]	18	0	0	0	n/a	n/a	0.0	0	0	0	FR2	1	R1022J
495.768	3.546	565128	PROB	3.546	n/a	n/a	-999	4	[3, 7, 5]	15	0	0	0	n/a	n/a	0.0	0	0	0	FR2	1	R1022J
499.314	0.011	568674	STOP	n/a	n/a	n/a	-999	4	[-999, -999, -999]	n/a	0	0	0	n/a	n/a	0.0	0	0	0	FR2	1	R1022J
499.325	1.103	568685	DISTRACT_END	n/a	n/a	n/a	-999	4	[0, 0, 0]	n/a	0	0	0	n/a	n/a	0.0	0	0	0	FR2	1	R1022J
500.428	2.478	569788	REC_START	n/a	n/a	n/a	-999	4	[0, 0, 0]	n/a	0	0	0	n/a	n/a	0.0	0	0	0	FR2	1	R1022J
502.906	0.619	572266	REC_WORD	2.478	n/a	ROCK	-999	4	[0, 0, 0]	n/a	0	0	0	n/a	n/a	0.0	0	0	0	FR2	1	R1022J
503.525	1.695	572885	REC_WORD	3.097	n/a	ROPE	-999	4	[0, 0, 0]	n/a	0	0	0	n/a	n/a	0.0	0	0	0	FR2	1	R1022J
505.22	3.92	574580	REC_WORD	4.792	n/a	CRANE	-999	4	[0, 0, 0]	n/a	0	0	0	n/a	n/a	0.0	0	0	0	FR2	1	R1022J
509.14	3.337	578500	REC_WORD	8.712	n/a	STEEL	-999	4	[0, 0, 0]	n/a	0	0	0	n/a	n/a	0.0	0	0	0	FR2	1	R1022J
512.477	17.964	581837	REC_WORD	12.049	n/a	EEL	-999	4	[0, 0, 0]	n/a	0	0	0	n/a	n/a	0.0	0	0	0	FR2	1	R1022J
530.441	2.107	599800	REC_END	n/a	n/a	n/a	-999	4	[0, 0, 0]	n/a	0	0	0	n/a	n/a	0.0	0	0	0	FR2	1	R1022J
532.548	0.0	601907	TRIAL	n/a	n/a	n/a	-999	5	[0, 0, 0]	n/a	0	1	0	n/a	n/a	0.0	0	0	0	FR2	1	R1022J
532.548	10.0	601907	COUNTDOWN_START	n/a	n/a	n/a	-999	5	[0, 0, 0]	n/a	0	1	0	n/a	n/a	0.0	0	0	0	FR2	1	R1022J
542.976	0.005	612334	COUNTDOWN_END	n/a	n/a	n/a	-999	5	[0, 0, 0]	n/a	0	1	0	n/a	n/a	0.0	0	0	0	FR2	1	R1022J
542.981	1.6	612339	ORIENT	n/a	n/a	n/a	-999	5	[0, 0, 0]	n/a	0	1	0	n/a	n/a	0.0	0	0	0	FR2	1	R1022J
545.603	1.6	614961	WORD	n/a	wordpools/wordpool_EN.txt	CLOCK	1	5	[0, 0, 0]	n/a	0	1	0	n/a	n/a	0.0	0	0	0	FR2	1	R1022J
548.09	1.6	617448	WORD	n/a	wordpools/wordpool_EN.txt	FENCE	2	5	[0, 0, 0]	n/a	0	1	0	n/a	n/a	0.0	0	0	0	FR2	1	R1022J
550.423	4.6	619781	STIM_ON	n/a	n/a	n/a	-999	5	[0, 0, 0]	n/a	1	1	4600	LB3	LB4	1000.0	50	230	300	FR2	1	R1022J
550.627	1.6	619985	WORD	n/a	wordpools/wordpool_EN.txt	WEED	3	5	[0, 0, 0]	n/a	1	1	4600	LB3	LB4	1000.0	50	230	300	FR2	1	R1022J
553.048	1.6	622406	WORD	n/a	wordpools/wordpool_EN.txt	BENCH	4	5	[0, 0, 0]	n/a	1	1	4600	LB3	LB4	1000.0	50	230	300	FR2	1	R1022J
555.454	1.6	624812	WORD	n/a	wordpools/wordpool_EN.txt	WALL	5	5	[0, 0, 0]	n/a	0	1	0	n/a	n/a	0.0	0	0	0	FR2	1	R1022J
558.074	1.6	627432	WORD	n/a	wordpools/wordpool_EN.txt	BAND	6	5	[0, 0, 0]	n/a	0	1	0	n/a	n/a	0.0	0	0	0	FR2	1	R1022J
560.322	4.6	629680	STIM_ON	n/a	n/a	n/a	-999	5	[0, 0, 0]	n/a	1	1	4600	LB3	LB4	1000.0	50	230	300	FR2	1	R1022J
560.528	1.6	629886	WORD	n/a	wordpools/wordpool_EN.txt	TOE	7	5	[0, 0, 0]	n/a	1	1	4600	LB3	LB4	1000.0	50	230	300	FR2	1	R1022J
563.065	1.6	632423	WORD	n/a	wordpools/wordpool_EN.txt	HORN	8	5	[0, 0, 0]	n/a	1	1	4600	LB3	LB4	1000.0	50	230	300	FR2	1	R1022J
565.52	1.6	634878	WORD	n/a	wordpools/wordpool_EN.txt	HAWK	9	5	[0, 0, 0]	n/a	0	1	0	n/a	n/a	0.0	0	0	0	FR2	1	R1022J
568.073	1.6	637431	WORD	n/a	wordpools/wordpool_EN.txt	NOSE	10	5	[0, 0, 0]	n/a	0	1	0	n/a	n/a	0.0	0	0	0	FR2	1	R1022J
570.383	4.6	639740	STIM_ON	n/a	n/a	n/a	-999	5	[0, 0, 0]	n/a	1	1	4600	LB3	LB4	1000.0	50	230	300	FR2	1	R1022J
570.594	1.6	639951	WORD	n/a	wordpools/wordpool_EN.txt	CLIFF	11	5	[0, 0, 0]	n/a	1	1	4600	LB3	LB4	1000.0	50	230	300	FR2	1	R1022J
573.182	1.6	642539	WORD	n/a	wordpools/wordpool_EN.txt	HAND	12	5	[0, 0, 0]	n/a	1	1	4600	LB3	LB4	1000.0	50	230	300	FR2	1	R1022J
574.801	0.001	644158	DISTRACT_START	n/a	n/a	n/a	-999	5	[0, 0, 0]	n/a	1	1	4600	LB3	LB4	1000.0	50	230	300	FR2	1	R1022J
574.802	0.016	644159	START	n/a	n/a	n/a	-999	5	[-999, -999, -999]	n/a	0	1	0	n/a	n/a	0.0	0	0	0	FR2	1	R1022J
574.818	5.359	644175	PROB	5.336	n/a	n/a	-999	5	[3, 4, 9]	16	0	1	0	n/a	n/a	0.0	0	0	0	FR2	1	R1022J
580.177	3.055	649534	PROB	3.033	n/a	n/a	-999	5	[1, 4, 4]	9	0	1	0	n/a	n/a	0.0	0	0	0	FR2	1	R1022J
583.232	2.822	652589	PROB	2.793	n/a	n/a	-999	5	[7, 3, 7]	17	0	1	0	n/a	n/a	0.0	0	0	0	FR2	1	R1022J
586.054	4.607	655411	PROB	4.579	n/a	n/a	-999	5	[6, 8, 2]	16	0	1	0	n/a	n/a	0.0	0	0	0	FR2	1	R1022J
590.661	4.996	660018	PROB	4.996	n/a	n/a	-999	5	[7, 7, 6]	20	0	1	0	n/a	n/a	0.0	0	0	0	FR2	1	R1022J
595.657	0.013	665014	STOP	n/a	n/a	n/a	-999	5	[-999, -999, -999]	n/a	0	1	0	n/a	n/a	0.0	0	0	0	FR2	1	R1022J
595.67	1.22	665027	DISTRACT_END	n/a	n/a	n/a	-999	5	[0, 0, 0]	n/a	0	1	0	n/a	n/a	0.0	0	0	0	FR2	1	R1022J
596.89	2.491	666247	REC_START	n/a	n/a	n/a	-999	5	[0, 0, 0]	n/a	0	1	0	n/a	n/a	0.0	0	0	0	FR2	1	R1022J
599.381	0.784	668737	REC_WORD	2.491	n/a	BENCH	-999	5	[0, 0, 0]	n/a	0	1	0	n/a	n/a	0.0	0	0	0	FR2	1	R1022J
600.165	1.514	669521	REC_WORD	3.275	n/a	BAND	-999	5	[0, 0, 0]	n/a	0	1	0	n/a	n/a	0.0	0	0	0	FR2	1	R1022J
601.679	2.292	671035	REC_WORD	4.789	n/a	TOE	-999	5	[0, 0, 0]	n/a	0	1	0	n/a	n/a	0.0	0	0	0	FR2	1	R1022J
603.971	0.719	673327	REC_WORD	7.081	n/a	BOARD	-999	5	[0, 0, 0]	n/a	0	1	0	n/a	n/a	0.0	0	0	0	FR2	1	R1022J
604.69	22.23	674046	REC_WORD	7.8	n/a	HAWK	-999	5	[0, 0, 0]	n/a	0	1	0	n/a	n/a	0.0	0	0	0	FR2	1	R1022J
626.92	4.126	696275	REC_END	n/a	n/a	n/a	-999	5	[0, 0, 0]	n/a	0	1	0	n/a	n/a	0.0	0	0	0	FR2	1	R1022J
631.046	0.0	700401	TRIAL	n/a	n/a	n/a	-999	6	[0, 0, 0]	n/a	0	0	0	n/a	n/a	0.0	0	0	0	FR2	1	R1022J
631.046	10.0	700401	COUNTDOWN_START	n/a	n/a	n/a	-999	6	[0, 0, 0]	n/a	0	0	0	n/a	n/a	0.0	0	0	0	FR2	1	R1022J
641.474	0.007	710829	COUNTDOWN_END	n/a	n/a	n/a	-999	6	[0, 0, 0]	n/a	0	0	0	n/a	n/a	0.0	0	0	0	FR2	1	R1022J
641.481	1.6	710836	ORIENT	n/a	n/a	n/a	-999	6	[0, 0, 0]	n/a	0	0	0	n/a	n/a	0.0	0	0	0	FR2	1	R1022J
644.085	1.6	713440	WORD	n/a	wordpools/wordpool_EN.txt	RAKE	1	6	[0, 0, 0]	n/a	0	0	0	n/a	n/a	0.0	0	0	0	FR2	1	R1022J
646.572	1.6	715927	WORD	n/a	wordpools/wordpool_EN.txt	TEETH	2	6	[0, 0, 0]	n/a	0	0	0	n/a	n/a	0.0	0	0	0	FR2	1	R1022J
649.193	1.6	718548	WORD	n/a	wordpools/wordpool_EN.txt	CROWN	3	6	[0, 0, 0]	n/a	0	0	0	n/a	n/a	0.0	0	0	0	FR2	1	R1022J
651.664	1.6	721019	WORD	n/a	wordpools/wordpool_EN.txt	BEAR	4	6	[0, 0, 0]	n/a	0	0	0	n/a	n/a	0.0	0	0	0	FR2	1	R1022J
654.052	1.6	723406	WORD	n/a	wordpools/wordpool_EN.txt	FISH	5	6	[0, 0, 0]	n/a	0	0	0	n/a	n/a	0.0	0	0	0	FR2	1	R1022J
656.473	1.6	725827	WORD	n/a	wordpools/wordpool_EN.txt	BIRD	6	6	[0, 0, 0]	n/a	0	0	0	n/a	n/a	0.0	0	0	0	FR2	1	R1022J
658.976	1.6	728330	WORD	n/a	wordpools/wordpool_EN.txt	DUCK	7	6	[0, 0, 0]	n/a	0	0	0	n/a	n/a	0.0	0	0	0	FR2	1	R1022J
661.415	1.6	730769	WORD	n/a	wordpools/wordpool_EN.txt	SHRIMP	8	6	[0, 0, 0]	n/a	0	0	0	n/a	n/a	0.0	0	0	0	FR2	1	R1022J
664.018	1.6	733372	WORD	n/a	wordpools/wordpool_EN.txt	DEER	9	6	[0, 0, 0]	n/a	0	0	0	n/a	n/a	0.0	0	0	0	FR2	1	R1022J
666.606	1.6	735960	WORD	n/a	wordpools/wordpool_EN.txt	FRUIT	10	6	[0, 0, 0]	n/a	0	0	0	n/a	n/a	0.0	0	0	0	FR2	1	R1022J
669.06	1.6	738414	WORD	n/a	wordpools/wordpool_EN.txt	RIB	11	6	[0, 0, 0]	n/a	0	0	0	n/a	n/a	0.0	0	0	0	FR2	1	R1022J
671.631	1.6	740985	WORD	n/a	wordpools/wordpool_EN.txt	WORM	12	6	[0, 0, 0]	n/a	0	0	0	n/a	n/a	0.0	0	0	0	FR2	1	R1022J
673.25	0.002	742604	DISTRACT_START	n/a	n/a	n/a	-999	6	[0, 0, 0]	n/a	0	0	0	n/a	n/a	0.0	0	0	0	FR2	1	R1022J
673.252	0.016	742606	START	n/a	n/a	n/a	-999	6	[-999, -999, -999]	n/a	0	0	0	n/a	n/a	0.0	0	0	0	FR2	1	R1022J
673.268	5.642	742622	PROB	5.605	n/a	n/a	-999	6	[5, 9, 3]	17	0	0	0	n/a	n/a	0.0	0	0	0	FR2	1	R1022J
678.91	4.691	748264	PROB	4.668	n/a	n/a	-999	6	[7, 4, 6]	17	0	0	0	n/a	n/a	0.0	0	0	0	FR2	1	R1022J
683.601	2.923	752954	PROB	2.897	n/a	n/a	-999	6	[3, 5, 5]	13	0	0	0	n/a	n/a	0.0	0	0	0	FR2	1	R1022J
686.524	5.977	755877	PROB	5.95	n/a	n/a	-999	6	[8, 9, 8]	25	0	0	0	n/a	n/a	0.0	0	0	0	FR2	1	R1022J
692.501	6.356	761854	PROB	6.356	n/a	n/a	-999	6	[2, 5, 3]	10	0	0	0	n/a	n/a	0.0	0	0	0	FR2	1	R1022J
698.857	0.02	768210	STOP	n/a	n/a	n/a	-999	6	[-999, -999, -999]	n/a	0	0	0	n/a	n/a	0.0	0	0	0	FR2	1	R1022J
698.877	1.152	768230	DISTRACT_END	n/a	n/a	n/a	-999	6	[0, 0, 0]	n/a	0	0	0	n/a	n/a	0.0	0	0	0	FR2	1	R1022J
700.029	3.409	769382	REC_START	n/a	n/a	n/a	-999	6	[0, 0, 0]	n/a	0	0	0	n/a	n/a	0.0	0	0	0	FR2	1	R1022J
703.438	0.66	772791	REC_WORD	3.409	n/a	DUCK	-999	6	[0, 0, 0]	n/a	0	0	0	n/a	n/a	0.0	0	0	0	FR2	1	R1022J
704.098	0.87	773451	REC_WORD	4.069	n/a	DEER	-999	6	[0, 0, 0]	n/a	0	0	0	n/a	n/a	0.0	0	0	0	FR2	1	R1022J
704.968	6.69	774321	REC_WORD	4.939	n/a	BEAR	-999	6	[0, 0, 0]	n/a	0	0	0	n/a	n/a	0.0	0	0	0	FR2	1	R1022J
711.658	9.626	781010	REC_WORD	11.629	n/a	EEL	-999	6	[0, 0, 0]	n/a	0	0	0	n/a	n/a	0.0	0	0	0	FR2	1	R1022J
721.284	6.614	790636	REC_WORD	21.255	n/a	BARN	-999	6	[0, 0, 0]	n/a	0	0	0	n/a	n/a	0.0	0	0	0	FR2	1	R1022J
727.898	2.152	797250	REC_WORD	27.869	n/a	SWAN	-999	6	[0, 0, 0]	n/a	0	0	0	n/a	n/a	0.0	0	0	0	FR2	1	R1022J
730.05	2.717	799402	REC_END	n/a	n/a	n/a	-999	6	[0, 0, 0]	n/a	0	0	0	n/a	n/a	0.0	0	0	0	FR2	1	R1022J
732.767	10.0	802119	COUNTDOWN_START	n/a	n/a	n/a	-999	7	[0, 0, 0]	n/a	0	1	0	n/a	n/a	0.0	0	0	0	FR2	1	R1022J
732.768	10.427	802120	TRIAL	n/a	n/a	n/a	-999	7	[0, 0, 0]	n/a	0	1	0	n/a	n/a	0.0	0	0	0	FR2	1	R1022J
743.195	0.006	812546	COUNTDOWN_END	n/a	n/a	n/a	-999	7	[0, 0, 0]	n/a	0	1	0	n/a	n/a	0.0	0	0	0	FR2	1	R1022J
743.201	1.6	812552	ORIENT	n/a	n/a	n/a	-999	7	[0, 0, 0]	n/a	0	1	0	n/a	n/a	0.0	0	0	0	FR2	1	R1022J
745.379	4.6	814730	STIM_ON	n/a	n/a	n/a	-999	7	[0, 0, 0]	n/a	1	1	4600	LB3	LB4	1000.0	50	230	300	FR2	1	R1022J
745.589	1.6	814940	WORD	n/a	wordpools/wordpool_EN.txt	WOOD	1	7	[0, 0, 0]	n/a	1	1	4600	LB3	LB4	1000.0	50	230	300	FR2	1	R1022J
748.043	1.6	817394	WORD	n/a	wordpools/wordpool_EN.txt	HAT	2	7	[0, 0, 0]	n/a	1	1	4600	LB3	LB4	1000.0	50	230	300	FR2	1	R1022J
750.448	1.6	819799	WORD	n/a	wordpools/wordpool_EN.txt	JET	3	7	[0, 0, 0]	n/a	0	1	0	n/a	n/a	0.0	0	0	0	FR2	1	R1022J
753.018	1.6	822369	WORD	n/a	wordpools/wordpool_EN.txt	FOAM	4	7	[0, 0, 0]	n/a	0	1	0	n/a	n/a	0.0	0	0	0	FR2	1	R1022J
755.209	4.6	824560	STIM_ON	n/a	n/a	n/a	-999	7	[0, 0, 0]	n/a	1	1	4600	LB3	LB4	1000.0	50	230	300	FR2	1	R1022J
755.423	1.6	824774	WORD	n/a	wordpools/wordpool_EN.txt	BAT	5	7	[0, 0, 0]	n/a	1	1	4600	LB3	LB4	1000.0	50	230	300	FR2	1	R1022J
757.976	1.6	827327	WORD	n/a	wordpools/wordpool_EN.txt	ROOM	6	7	[0, 0, 0]	n/a	1	1	4600	LB3	LB4	1000.0	50	230	300	FR2	1	R1022J
760.581	1.6	829932	WORD	n/a	wordpools/wordpool_EN.txt	WING	7	7	[0, 0, 0]	n/a	0	1	0	n/a	n/a	0.0	0	0	0	FR2	1	R1022J
763.135	1.6	832486	WORD	n/a	wordpools/wordpool_EN.txt	SLIME	8	7	[0, 0, 0]	n/a	0	1	0	n/a	n/a	0.0	0	0	0	FR2	1	R1022J
765.479	4.6	834829	STIM_ON	n/a	n/a	n/a	-999	7	[0, 0, 0]	n/a	1	1	4600	LB3	LB4	1000.0	50	230	300	FR2	1	R1022J
765.689	1.6	835039	WORD	n/a	wordpools/wordpool_EN.txt	BOWL	9	7	[0, 0, 0]	n/a	1	1	4600	LB3	LB4	1000.0	50	230	300	FR2	1	R1022J
768.127	1.6	837477	WORD	n/a	wordpools/wordpool_EN.txt	FUR	10	7	[0, 0, 0]	n/a	1	1	4600	LB3	LB4	1000.0	50	230	300	FR2	1	R1022J
770.681	1.6	840031	WORD	n/a	wordpools/wordpool_EN.txt	PIN	11	7	[0, 0, 0]	n/a	0	1	0	n/a	n/a	0.0	0	0	0	FR2	1	R1022J
773.085	1.6	842435	WORD	n/a	wordpools/wordpool_EN.txt	SPARK	12	7	[0, 0, 0]	n/a	0	1	0	n/a	n/a	0.0	0	0	0	FR2	1	R1022J
774.705	0.0	844055	DISTRACT_START	n/a	n/a	n/a	-999	7	[0, 0, 0]	n/a	0	1	0	n/a	n/a	0.0	0	0	0	FR2	1	R1022J
774.705	0.016	844055	START	n/a	n/a	n/a	-999	7	[-999, -999, -999]	n/a	0	1	0	n/a	n/a	0.0	0	0	0	FR2	1	R1022J
774.721	6.277	844071	PROB	6.248	n/a	n/a	-999	7	[4, 8, 7]	19	0	1	0	n/a	n/a	0.0	0	0	0	FR2	1	R1022J
780.998	6.011	850348	PROB	5.979	n/a	n/a	-999	7	[6, 1, 8]	15	0	1	0	n/a	n/a	0.0	0	0	0	FR2	1	R1022J
787.009	3.572	856359	PROB	3.544	n/a	n/a	-999	7	[3, 3, 1]	7	0	1	0	n/a	n/a	0.0	0	0	0	FR2	1	R1022J
790.581	8.981	859931	PROB	8.981	n/a	n/a	-999	7	[6, 9, 7]	22	0	1	0	n/a	n/a	0.0	0	0	0	FR2	1	R1022J
799.562	0.018	868911	STOP	n/a	n/a	n/a	-999	7	[-999, -999, -999]	n/a	0	1	0	n/a	n/a	0.0	0	0	0	FR2	1	R1022J
799.58	1.052	868929	DISTRACT_END	n/a	n/a	n/a	-999	7	[0, 0, 0]	n/a	0	1	0	n/a	n/a	0.0	0	0	0	FR2	1	R1022J
800.632	3.54	869981	REC_START	n/a	n/a	n/a	-999	7	[0, 0, 0]	n/a	0	1	0	n/a	n/a	0.0	0	0	0	FR2	1	R1022J
804.172	1.511	873521	REC_WORD	3.54	n/a	SLIME	-999	7	[0, 0, 0]	n/a	0	1	0	n/a	n/a	0.0	0	0	0	FR2	1	R1022J
805.683	4.846	875032	REC_WORD	5.051	n/a	BALL	-999	7	[0, 0, 0]	n/a	0	1	0	n/a	n/a	0.0	0	0	0	FR2	1	R1022J
810.529	2.945	879878	REC_WORD	9.897	n/a	CAN	-999	7	[0, 0, 0]	n/a	0	1	0	n/a	n/a	0.0	0	0	0	FR2	1	R1022J
813.474	17.17	882823	REC_WORD	12.842	n/a	SHOW	-999	7	[0, 0, 0]	n/a	0	1	0	n/a	n/a	0.0	0	0	0	FR2	1	R1022J
830.644	2.392	899992	REC_END	n/a	n/a	n/a	-999	7	[0, 0, 0]	n/a	0	1	0	n/a	n/a	0.0	0	0	0	FR2	1	R1022J
833.036	10.0	902384	COUNTDOWN_START	n/a	n/a	n/a	-999	8	[0, 0, 0]	n/a	0	1	0	n/a	n/a	0.0	0	0	0	FR2	1	R1022J
833.037	10.427	902385	TRIAL	n/a	n/a	n/a	-999	8	[0, 0, 0]	n/a	0	1	0	n/a	n/a	0.0	0	0	0	FR2	1	R1022J
843.464	0.007	912812	COUNTDOWN_END	n/a	n/a	n/a	-999	8	[0, 0, 0]	n/a	0	1	0	n/a	n/a	0.0	0	0	0	FR2	1	R1022J
843.471	1.6	912819	ORIENT	n/a	n/a	n/a	-999	8	[0, 0, 0]	n/a	0	1	0	n/a	n/a	0.0	0	0	0	FR2	1	R1022J
845.74	4.6	915088	STIM_ON	n/a	n/a	n/a	-999	8	[0, 0, 0]	n/a	1	1	4600	LB3	LB4	1000.0	50	230	300	FR2	1	R1022J
845.958	1.6	915306	WORD	n/a	wordpools/wordpool_EN.txt	THREAD	1	8	[0, 0, 0]	n/a	1	1	4600	LB3	LB4	1000.0	50	230	300	FR2	1	R1022J
848.53	1.6	917877	WORD	n/a	wordpools/wordpool_EN.txt	SHOE	2	8	[0, 0, 0]	n/a	1	1	4600	LB3	LB4	1000.0	50	230	300	FR2	1	R1022J
850.966	1.6	920313	WORD	n/a	wordpools/wordpool_EN.txt	LIP	3	8	[0, 0, 0]	n/a	0	1	0	n/a	n/a	0.0	0	0	0	FR2	1	R1022J
853.554	1.6	922901	WORD	n/a	wordpools/wordpool_EN.txt	SUIT	4	8	[0, 0, 0]	n/a	0	1	0	n/a	n/a	0.0	0	0	0	FR2	1	R1022J
855.893	4.6	925240	STIM_ON	n/a	n/a	n/a	-999	8	[0, 0, 0]	n/a	1	1	4600	LB3	LB4	1000.0	50	230	300	FR2	1	R1022J
856.108	1.6	925455	WORD	n/a	wordpools/wordpool_EN.txt	RUG	5	8	[0, 0, 0]	n/a	1	1	4600	LB3	LB4	1000.0	50	230	300	FR2	1	R1022J
858.513	1.6	927860	WORD	n/a	wordpools/wordpool_EN.txt	SHIELD	6	8	[0, 0, 0]	n/a	1	1	4600	LB3	LB4	1000.0	50	230	300	FR2	1	R1022J
861.083	1.6	930430	WORD	n/a	wordpools/wordpool_EN.txt	SIGN	7	8	[0, 0, 0]	n/a	0	1	0	n/a	n/a	0.0	0	0	0	FR2	1	R1022J
863.604	1.6	932951	WORD	n/a	wordpools/wordpool_EN.txt	BEAK	8	8	[0, 0, 0]	n/a	0	1	0	n/a	n/a	0.0	0	0	0	FR2	1	R1022J
865.905	4.6	935252	STIM_ON	n/a	n/a	n/a	-999	8	[0, 0, 0]	n/a	1	1	4600	LB3	LB4	1000.0	50	230	300	FR2	1	R1022J
866.125	1.6	935472	WORD	n/a	wordpools/wordpool_EN.txt	PANTS	9	8	[0, 0, 0]	n/a	1	1	4600	LB3	LB4	1000.0	50	230	300	FR2	1	R1022J
868.746	1.6	938093	WORD	n/a	wordpools/wordpool_EN.txt	SOAP	10	8	[0, 0, 0]	n/a	1	1	4600	LB3	LB4	1000.0	50	230	300	FR2	1	R1022J
871.15	1.6	940497	WORD	n/a	wordpools/wordpool_EN.txt	CLOWN	11	8	[0, 0, 0]	n/a	0	1	0	n/a	n/a	0.0	0	0	0	FR2	1	R1022J
873.704	1.6	943051	WORD	n/a	wordpools/wordpool_EN.txt	LAMP	12	8	[0, 0, 0]	n/a	0	1	0	n/a	n/a	0.0	0	0	0	FR2	1	R1022J
875.308	0.001	944654	DISTRACT_START	n/a	n/a	n/a	-999	8	[0, 0, 0]	n/a	0	1	0	n/a	n/a	0.0	0	0	0	FR2	1	R1022J
875.309	0.016	944655	START	n/a	n/a	n/a	-999	8	[-999, -999, -999]	n/a	0	1	0	n/a	n/a	0.0	0	0	0	FR2	1	R1022J
875.325	4.14	944671	PROB	4.117	n/a	n/a	-999	8	[1, 8, 2]	11	0	1	0	n/a	n/a	0.0	0	0	0	FR2	1	R1022J
879.465	4.173	948811	PROB	4.144	n/a	n/a	-999	8	[6, 6, 5]	17	0	1	0	n/a	n/a	0.0	0	0	0	FR2	1	R1022J
883.638	9.466	952984	PROB	9.436	n/a	n/a	-999	8	[5, 7, 8]	20	0	1	0	n/a	n/a	0.0	0	0	0	FR2	1	R1022J
893.104	5.881	962450	PROB	5.881	n/a	n/a	-999	8	[4, 8, 8]	20	0	1	0	n/a	n/a	0.0	0	0	0	FR2	1	R1022J
898.985	0.012	968331	STOP	n/a	n/a	n/a	-999	8	[-999, -999, -999]	n/a	0	1	0	n/a	n/a	0.0	0	0	0	FR2	1	R1022J
898.997	1.036	968343	DISTRACT_END	n/a	n/a	n/a	-999	8	[0, 0, 0]	n/a	0	1	0	n/a	n/a	0.0	0	0	0	FR2	1	R1022J
900.033	1.891	969379	REC_START	n/a	n/a	n/a	-999	8	[0, 0, 0]	n/a	0	1	0	n/a	n/a	0.0	0	0	0	FR2	1	R1022J
901.924	0.691	971270	REC_WORD	1.891	n/a	SHOE	-999	8	[0, 0, 0]	n/a	0	1	0	n/a	n/a	0.0	0	0	0	FR2	1	R1022J
902.615	0.89	971961	REC_WORD	2.582	n/a	SHIRT	-999	8	[0, 0, 0]	n/a	0	1	0	n/a	n/a	0.0	0	0	0	FR2	1	R1022J
903.505	13.21	972850	REC_WORD	3.472	n/a	PANTS	-999	8	[0, 0, 0]	n/a	0	1	0	n/a	n/a	0.0	0	0	0	FR2	1	R1022J
916.715	4.8	986060	REC_WORD	16.682	n/a	SIGN	-999	8	[0, 0, 0]	n/a	0	1	0	n/a	n/a	0.0	0	0	0	FR2	1	R1022J
921.515	4.831	990860	REC_WORD	21.482	n/a	SEAL	-999	8	[0, 0, 0]	n/a	0	1	0	n/a	n/a	0.0	0	0	0	FR2	1	R1022J
926.346	3.702	995691	REC_WORD	26.313	n/a	SLIP	-999	8	[0, 0, 0]	n/a	0	1	0	n/a	n/a	0.0	0	0	0	FR2	1	R1022J
930.048	2.088	999393	REC_END	n/a	n/a	n/a	-999	8	[0, 0, 0]	n/a	0	1	0	n/a	n/a	0.0	0	0	0	FR2	1	R1022J
932.136	0.0	1001480	TRIAL	n/a	n/a	n/a	-999	9	[0, 0, 0]	n/a	0	1	0	n/a	n/a	0.0	0	0	0	FR2	1	R1022J
932.136	10.0	1001480	COUNTDOWN_START	n/a	n/a	n/a	-999	9	[0, 0, 0]	n/a	0	1	0	n/a	n/a	0.0	0	0	0	FR2	1	R1022J
942.564	0.006	1011908	COUNTDOWN_END	n/a	n/a	n/a	-999	9	[0, 0, 0]	n/a	0	1	0	n/a	n/a	0.0	0	0	0	FR2	1	R1022J
942.57	1.6	1011914	ORIENT	n/a	n/a	n/a	-999	9	[0, 0, 0]	n/a	0	1	0	n/a	n/a	0.0	0	0	0	FR2	1	R1022J
944.852	4.6	1014196	STIM_ON	n/a	n/a	n/a	-999	9	[0, 0, 0]	n/a	1	1	4600	LB3	LB4	1000.0	50	230	300	FR2	1	R1022J
945.058	1.6	1014402	WORD	n/a	wordpools/wordpool_EN.txt	FOG	1	9	[0, 0, 0]	n/a	1	1	4600	LB3	LB4	1000.0	50	230	300	FR2	1	R1022J
947.463	1.6	1016807	WORD	n/a	wordpools/wordpool_EN.txt	BED	2	9	[0, 0, 0]	n/a	1	1	4600	LB3	LB4	1000.0	50	230	300	FR2	1	R1022J
949.883	1.6	1019227	WORD	n/a	wordpools/wordpool_EN.txt	GEESE	3	9	[0, 0, 0]	n/a	0	1	0	n/a	n/a	0.0	0	0	0	FR2	1	R1022J
952.488	1.6	1021832	WORD	n/a	wordpools/wordpool_EN.txt	COW	4	9	[0, 0, 0]	n/a	0	1	0	n/a	n/a	0.0	0	0	0	FR2	1	R1022J
954.682	4.6	1024026	STIM_ON	n/a	n/a	n/a	-999	9	[0, 0, 0]	n/a	1	1	4600	LB3	LB4	1000.0	50	230	300	FR2	1	R1022J
954.891	1.6	1024235	WORD	n/a	wordpools/wordpool_EN.txt	BOARD	5	9	[0, 0, 0]	n/a	1	1	4600	LB3	LB4	1000.0	50	230	300	FR2	1	R1022J
957.313	1.6	1026657	WORD	n/a	wordpools/wordpool_EN.txt	BRIDGE	6	9	[0, 0, 0]	n/a	1	1	4600	LB3	LB4	1000.0	50	230	300	FR2	1	R1022J
959.916	1.6	1029259	WORD	n/a	wordpools/wordpool_EN.txt	BOAT	7	9	[0, 0, 0]	n/a	0	1	0	n/a	n/a	0.0	0	0	0	FR2	1	R1022J
962.421	1.6	1031764	WORD	n/a	wordpools/wordpool_EN.txt	SLUSH	8	9	[0, 0, 0]	n/a	0	1	0	n/a	n/a	0.0	0	0	0	FR2	1	R1022J
964.66	4.6	1034003	STIM_ON	n/a	n/a	n/a	-999	9	[0, 0, 0]	n/a	1	1	4600	LB3	LB4	1000.0	50	230	300	FR2	1	R1022J
964.875	1.6	1034218	WORD	n/a	wordpools/wordpool_EN.txt	VAN	9	9	[0, 0, 0]	n/a	1	1	4600	LB3	LB4	1000.0	50	230	300	FR2	1	R1022J
967.313	1.6	1036656	WORD	n/a	wordpools/wordpool_EN.txt	GUARD	10	9	[0, 0, 0]	n/a	1	1	4600	LB3	LB4	1000.0	50	230	300	FR2	1	R1022J
969.733	1.6	1039076	WORD	n/a	wordpools/wordpool_EN.txt	LAMB	11	9	[0, 0, 0]	n/a	0	1	0	n/a	n/a	0.0	0	0	0	FR2	1	R1022J
972.17	1.6	1041513	WORD	n/a	wordpools/wordpool_EN.txt	STOVE	12	9	[0, 0, 0]	n/a	0	1	0	n/a	n/a	0.0	0	0	0	FR2	1	R1022J
973.79	0.0	1043133	DISTRACT_START	n/a	n/a	n/a	-999	9	[0, 0, 0]	n/a	0	1	0	n/a	n/a	0.0	0	0	0	FR2	1	R1022J
973.79	0.016	1043133	START	n/a	n/a	n/a	-999	9	[-999, -999, -999]	n/a	0	1	0	n/a	n/a	0.0	0	0	0	FR2	1	R1022J
973.806	5.326	1043149	PROB	5.3	n/a	n/a	-999	9	[6, 8, 5]	19	0	1	0	n/a	n/a	0.0	0	0	0	FR2	1	R1022J
979.132	9.133	1048475	PROB	9.093	n/a	n/a	-999	9	[2, 6, 9]	17	0	1	0	n/a	n/a	0.0	0	0	0	FR2	1	R1022J
988.265	2.637	1057607	PROB	2.609	n/a	n/a	-999	9	[9, 5, 5]	19	0	1	0	n/a	n/a	0.0	0	0	0	FR2	1	R1022J
990.902	3.26	1060244	PROB	3.26	n/a	n/a	-999	9	[5, 7, 3]	15	0	1	0	n/a	n/a	0.0	0	0	0	FR2	1	R1022J
994.162	0.012	1063504	STOP	n/a	n/a	n/a	-999	9	[-999, -999, -999]	n/a	0	1	0	n/a	n/a	0.0	0	0	0	FR2	1	R1022J
994.174	1.052	1063516	DISTRACT_END	n/a	n/a	n/a	-999	9	[0, 0, 0]	n/a	0	1	0	n/a	n/a	0.0	0	0	0	FR2	1	R1022J
995.226	3.796	1064568	REC_START	n/a	n/a	n/a	-999	9	[0, 0, 0]	n/a	0	1	0	n/a	n/a	0.0	0	0	0	FR2	1	R1022J
999.022	0.487	1068364	REC_WORD	3.796	n/a	BOARD	-999	9	[0, 0, 0]	n/a	0	1	0	n/a	n/a	0.0	0	0	0	FR2	1	R1022J
999.509	0.899	1068851	REC_WORD	4.283	n/a	SHIP	-999	9	[0, 0, 0]	n/a	0	1	0	n/a	n/a	0.0	0	0	0	FR2	1	R1022J
1000.408	1.739	1069750	REC_WORD	5.182	n/a	VAN	-999	9	[0, 0, 0]	n/a	0	1	0	n/a	n/a	0.0	0	0	0	FR2	1	R1022J
1002.147	4.775	1071489	REC_WORD	6.921	n/a	SAIL	-999	9	[0, 0, 0]	n/a	0	1	0	n/a	n/a	0.0	0	0	0	FR2	1	R1022J
1006.922	18.329	1076264	REC_WORD	11.696	n/a	GUARD	-999	9	[0, 0, 0]	n/a	0	1	0	n/a	n/a	0.0	0	0	0	FR2	1	R1022J
1025.251	2.596	1094592	REC_END	n/a	n/a	n/a	-999	9	[0, 0, 0]	n/a	0	1	0	n/a	n/a	0.0	0	0	0	FR2	1	R1022J
1027.847	10.0	1097188	COUNTDOWN_START	n/a	n/a	n/a	-999	10	[0, 0, 0]	n/a	0	1	0	n/a	n/a	0.0	0	0	0	FR2	1	R1022J
1027.848	10.427	1097189	TRIAL	n/a	n/a	n/a	-999	10	[0, 0, 0]	n/a	0	1	0	n/a	n/a	0.0	0	0	0	FR2	1	R1022J
1038.275	0.007	1107616	COUNTDOWN_END	n/a	n/a	n/a	-999	10	[0, 0, 0]	n/a	0	1	0	n/a	n/a	0.0	0	0	0	FR2	1	R1022J
1038.282	1.6	1107623	ORIENT	n/a	n/a	n/a	-999	10	[0, 0, 0]	n/a	0	1	0	n/a	n/a	0.0	0	0	0	FR2	1	R1022J
1040.521	4.6	1109862	STIM_ON	n/a	n/a	n/a	-999	10	[0, 0, 0]	n/a	1	1	4600	LB3	LB4	1000.0	50	230	300	FR2	1	R1022J
1040.736	1.6	1110077	WORD	n/a	wordpools/wordpool_EN.txt	SPEAR	1	10	[0, 0, 0]	n/a	1	1	4600	LB3	LB4	1000.0	50	230	300	FR2	1	R1022J
1043.14	1.6	1112480	WORD	n/a	wordpools/wordpool_EN.txt	HOLE	2	10	[0, 0, 0]	n/a	1	1	4600	LB3	LB4	1000.0	50	230	300	FR2	1	R1022J
1045.627	1.6	1114967	WORD	n/a	wordpools/wordpool_EN.txt	BUSH	3	10	[0, 0, 0]	n/a	0	1	0	n/a	n/a	0.0	0	0	0	FR2	1	R1022J
1048.081	1.6	1117421	WORD	n/a	wordpools/wordpool_EN.txt	CHIN	4	10	[0, 0, 0]	n/a	0	1	0	n/a	n/a	0.0	0	0	0	FR2	1	R1022J
1050.362	4.6	1119702	STIM_ON	n/a	n/a	n/a	-999	10	[0, 0, 0]	n/a	1	1	4600	LB3	LB4	1000.0	50	230	300	FR2	1	R1022J
1050.57	1.6	1119910	WORD	n/a	wordpools/wordpool_EN.txt	CHEEK	5	10	[0, 0, 0]	n/a	1	1	4600	LB3	LB4	1000.0	50	230	300	FR2	1	R1022J
1053.106	1.6	1122446	WORD	n/a	wordpools/wordpool_EN.txt	PALM	6	10	[0, 0, 0]	n/a	1	1	4600	LB3	LB4	1000.0	50	230	300	FR2	1	R1022J
1055.628	1.6	1124968	WORD	n/a	wordpools/wordpool_EN.txt	FLOOR	7	10	[0, 0, 0]	n/a	0	1	0	n/a	n/a	0.0	0	0	0	FR2	1	R1022J
1058.065	1.6	1127405	WORD	n/a	wordpools/wordpool_EN.txt	CONE	8	10	[0, 0, 0]	n/a	0	1	0	n/a	n/a	0.0	0	0	0	FR2	1	R1022J
1060.462	4.6	1129802	STIM_ON	n/a	n/a	n/a	-999	10	[0, 0, 0]	n/a	1	1	4600	LB3	LB4	1000.0	50	230	300	FR2	1	R1022J
1060.67	1.6	1130010	WORD	n/a	wordpools/wordpool_EN.txt	LOCK	9	10	[0, 0, 0]	n/a	1	1	4600	LB3	LB4	1000.0	50	230	300	FR2	1	R1022J
1063.073	1.6	1132413	WORD	n/a	wordpools/wordpool_EN.txt	SWORD	10	10	[0, 0, 0]	n/a	1	1	4600	LB3	LB4	1000.0	50	230	300	FR2	1	R1022J
1065.594	1.6	1134934	WORD	n/a	wordpools/wordpool_EN.txt	FROG	11	10	[0, 0, 0]	n/a	0	1	0	n/a	n/a	0.0	0	0	0	FR2	1	R1022J
1068.116	1.6	1137456	WORD	n/a	wordpools/wordpool_EN.txt	FLAME	12	10	[0, 0, 0]	n/a	0	1	0	n/a	n/a	0.0	0	0	0	FR2	1	R1022J
1069.734	0.001	1139073	DISTRACT_START	n/a	n/a	n/a	-999	10	[0, 0, 0]	n/a	0	1	0	n/a	n/a	0.0	0	0	0	FR2	1	R1022J
1069.735	0.016	1139074	START	n/a	n/a	n/a	-999	10	[-999, -999, -999]	n/a	0	1	0	n/a	n/a	0.0	0	0	0	FR2	1	R1022J
1069.751	4.676	1139090	PROB	4.652	n/a	n/a	-999	10	[2, 6, 9]	17	0	1	0	n/a	n/a	0.0	0	0	0	FR2	1	R1022J
1074.427	2.955	1143766	PROB	2.927	n/a	n/a	-999	10	[6, 5, 1]	12	0	1	0	n/a	n/a	0.0	0	0	0	FR2	1	R1022J
1077.382	2.536	1146721	PROB	2.5	n/a	n/a	-999	10	[7, 3, 9]	19	0	1	0	n/a	n/a	0.0	0	0	0	FR2	1	R1022J
1079.918	8.732	1149257	PROB	8.707	n/a	n/a	-999	10	[5, 8, 4]	17	0	1	0	n/a	n/a	0.0	0	0	0	FR2	1	R1022J
1088.65	4.479	1157989	PROB	4.479	n/a	n/a	-999	10	[5, 8, 6]	18	0	1	0	n/a	n/a	0.0	0	0	0	FR2	1	R1022J
1093.129	0.011	1162468	STOP	n/a	n/a	n/a	-999	10	[-999, -999, -999]	n/a	0	1	0	n/a	n/a	0.0	0	0	0	FR2	1	R1022J
1093.14	1.086	1162479	DISTRACT_END	n/a	n/a	n/a	-999	10	[0, 0, 0]	n/a	0	1	0	n/a	n/a	0.0	0	0	0	FR2	1	R1022J
1094.226	4.721	1163565	REC_START	n/a	n/a	n/a	-999	10	[0, 0, 0]	n/a	0	1	0	n/a	n/a	0.0	0	0	0	FR2	1	R1022J
1098.947	0.89	1168285	REC_WORD	4.721	n/a	CHILI	-999	10	[0, 0, 0]	n/a	0	1	0	n/a	n/a	0.0	0	0	0	FR2	1	R1022J
1099.837	1.35	1169175	REC_WORD	5.611	n/a	RUM	-999	10	[0, 0, 0]	n/a	0	1	0	n/a	n/a	0.0	0	0	0	FR2	1	R1022J
1101.187	4.556	1170525	REC_WORD	6.961	n/a	BEACH	-999	10	[0, 0, 0]	n/a	0	1	0	n/a	n/a	0.0	0	0	0	FR2	1	R1022J
1105.743	18.498	1175081	REC_WORD	11.517	n/a	SAND	-999	10	[0, 0, 0]	n/a	0	1	0	n/a	n/a	0.0	0	0	0	FR2	1	R1022J
1124.241	2.323	1193579	REC_END	n/a	n/a	n/a	-999	10	[0, 0, 0]	n/a	0	1	0	n/a	n/a	0.0	0	0	0	FR2	1	R1022J
1126.564	0.0	1195901	TRIAL	n/a	n/a	n/a	-999	11	[0, 0, 0]	n/a	0	0	0	n/a	n/a	0.0	0	0	0	FR2	1	R1022J
1126.564	10.0	1195901	COUNTDOWN_START	n/a	n/a	n/a	-999	11	[0, 0, 0]	n/a	0	0	0	n/a	n/a	0.0	0	0	0	FR2	1	R1022J
1136.992	0.005	1206329	COUNTDOWN_END	n/a	n/a	n/a	-999	11	[0, 0, 0]	n/a	0	0	0	n/a	n/a	0.0	0	0	0	FR2	1	R1022J
1136.997	1.6	1206334	ORIENT	n/a	n/a	n/a	-999	11	[0, 0, 0]	n/a	0	0	0	n/a	n/a	0.0	0	0	0	FR2	1	R1022J
1139.486	1.6	1208823	WORD	n/a	wordpools/wordpool_EN.txt	BLOOM	1	11	[0, 0, 0]	n/a	0	0	0	n/a	n/a	0.0	0	0	0	FR2	1	R1022J
1142.039	1.6	1211376	WORD	n/a	wordpools/wordpool_EN.txt	BARN	2	11	[0, 0, 0]	n/a	0	0	0	n/a	n/a	0.0	0	0	0	FR2	1	R1022J
1144.577	1.6	1213914	WORD	n/a	wordpools/wordpool_EN.txt	PEN	3	11	[0, 0, 0]	n/a	0	0	0	n/a	n/a	0.0	0	0	0	FR2	1	R1022J
1147.048	1.6	1216385	WORD	n/a	wordpools/wordpool_EN.txt	WHEEL	4	11	[0, 0, 0]	n/a	0	0	0	n/a	n/a	0.0	0	0	0	FR2	1	R1022J
1149.569	1.6	1218906	WORD	n/a	wordpools/wordpool_EN.txt	BRICK	5	11	[0, 0, 0]	n/a	0	0	0	n/a	n/a	0.0	0	0	0	FR2	1	R1022J
1151.989	1.6	1221326	WORD	n/a	wordpools/wordpool_EN.txt	SALT	6	11	[0, 0, 0]	n/a	0	0	0	n/a	n/a	0.0	0	0	0	FR2	1	R1022J
1154.445	1.6	1223781	WORD	n/a	wordpools/wordpool_EN.txt	MOLE	7	11	[0, 0, 0]	n/a	0	0	0	n/a	n/a	0.0	0	0	0	FR2	1	R1022J
1156.964	1.6	1226300	WORD	n/a	wordpools/wordpool_EN.txt	MOTH	8	11	[0, 0, 0]	n/a	0	0	0	n/a	n/a	0.0	0	0	0	FR2	1	R1022J
1159.486	1.6	1228822	WORD	n/a	wordpools/wordpool_EN.txt	DOG	9	11	[0, 0, 0]	n/a	0	0	0	n/a	n/a	0.0	0	0	0	FR2	1	R1022J
1161.973	1.6	1231309	WORD	n/a	wordpools/wordpool_EN.txt	FLEA	10	11	[0, 0, 0]	n/a	0	0	0	n/a	n/a	0.0	0	0	0	FR2	1	R1022J
1164.511	1.6	1233847	WORD	n/a	wordpools/wordpool_EN.txt	STEAM	11	11	[0, 0, 0]	n/a	0	0	0	n/a	n/a	0.0	0	0	0	FR2	1	R1022J
1167.148	1.6	1236484	WORD	n/a	wordpools/wordpool_EN.txt	KITE	12	11	[0, 0, 0]	n/a	0	0	0	n/a	n/a	0.0	0	0	0	FR2	1	R1022J
1168.768	0.001	1238104	DISTRACT_START	n/a	n/a	n/a	-999	11	[0, 0, 0]	n/a	0	0	0	n/a	n/a	0.0	0	0	0	FR2	1	R1022J
1168.769	0.015	1238105	START	n/a	n/a	n/a	-999	11	[-999, -999, -999]	n/a	0	0	0	n/a	n/a	0.0	0	0	0	FR2	1	R1022J
1168.784	5.611	1238120	PROB	5.579	n/a	n/a	-999	11	[9, 5, 1]	15	0	0	0	n/a	n/a	0.0	0	0	0	FR2	1	R1022J
1174.395	4.339	1243731	PROB	4.31	n/a	n/a	-999	11	[7, 7, 6]	20	0	0	0	n/a	n/a	0.0	0	0	0	FR2	1	R1022J
1178.734	3.591	1248070	PROB	3.564	n/a	n/a	-999	11	[3, 3, 9]	15	0	0	0	n/a	n/a	0.0	0	0	0	FR2	1	R1022J
1182.325	2.486	1251660	PROB	2.46	n/a	n/a	-999	11	[2, 1, 1]	4	0	0	0	n/a	n/a	0.0	0	0	0	FR2	1	R1022J
1184.811	4.318	1254146	PROB	4.318	n/a	n/a	-999	11	[9, 1, 6]	16	0	0	0	n/a	n/a	0.0	0	0	0	FR2	1	R1022J
1189.129	0.006	1258464	STOP	n/a	n/a	n/a	-999	11	[-999, -999, -999]	n/a	0	0	0	n/a	n/a	0.0	0	0	0	FR2	1	R1022J
1189.135	1.493	1258470	DISTRACT_END	n/a	n/a	n/a	-999	11	[0, 0, 0]	n/a	0	0	0	n/a	n/a	0.0	0	0	0	FR2	1	R1022J
1190.628	2.205	1259963	REC_START	n/a	n/a	n/a	-999	11	[0, 0, 0]	n/a	0	0	0	n/a	n/a	0.0	0	0	0	FR2	1	R1022J
1192.833	0.856	1262168	REC_WORD	2.205	n/a	BLOOM	-999	11	[0, 0, 0]	n/a	0	0	0	n/a	n/a	0.0	0	0	0	FR2	1	R1022J
1193.689	2.684	1263024	REC_WORD	3.061	n/a	BARN	-999	11	[0, 0, 0]	n/a	0	0	0	n/a	n/a	0.0	0	0	0	FR2	1	R1022J
1196.373	5.087	1265708	REC_WORD	5.745	n/a	PEN	-999	11	[0, 0, 0]	n/a	0	0	0	n/a	n/a	0.0	0	0	0	FR2	1	R1022J
1201.46	1.245	1270795	REC_WORD	10.832	n/a	TRICK	-999	11	[0, 0, 0]	n/a	0	0	0	n/a	n/a	0.0	0	0	0	FR2	1	R1022J
1202.705	4.675	1272040	REC_WORD	12.077	n/a	DOG	-999	11	[0, 0, 0]	n/a	0	0	0	n/a	n/a	0.0	0	0	0	FR2	1	R1022J
1207.38	0.813	1276715	REC_WORD	16.752	n/a	TRICK	-999	11	[0, 0, 0]	n/a	0	0	0	n/a	n/a	0.0	0	0	0	FR2	1	R1022J
1208.193	10.865	1277528	REC_WORD_VV	17.565	n/a	<>	-999	11	[0, 0, 0]	n/a	0	0	0	n/a	n/a	0.0	0	0	0	FR2	1	R1022J
1219.058	1.244	1288392	REC_WORD	28.43	n/a	SAIL	-999	11	[0, 0, 0]	n/a	0	0	0	n/a	n/a	0.0	0	0	0	FR2	1	R1022J
1220.302	2.357	1289636	REC_END	n/a	n/a	n/a	-999	11	[0, 0, 0]	n/a	0	0	0	n/a	n/a	0.0	0	0	0	FR2	1	R1022J
1222.659	10.0	1291993	COUNTDOWN_START	n/a	n/a	n/a	-999	12	[0, 0, 0]	n/a	0	1	0	n/a	n/a	0.0	0	0	0	FR2	1	R1022J
1222.66	10.427	1291994	TRIAL	n/a	n/a	n/a	-999	12	[0, 0, 0]	n/a	0	1	0	n/a	n/a	0.0	0	0	0	FR2	1	R1022J
1233.087	0.006	1302421	COUNTDOWN_END	n/a	n/a	n/a	-999	12	[0, 0, 0]	n/a	0	1	0	n/a	n/a	0.0	0	0	0	FR2	1	R1022J
1233.093	1.6	1302427	ORIENT	n/a	n/a	n/a	-999	12	[0, 0, 0]	n/a	0	1	0	n/a	n/a	0.0	0	0	0	FR2	1	R1022J
1235.714	1.6	1305048	WORD	n/a	wordpools/wordpool_EN.txt	JEEP	1	12	[0, 0, 0]	n/a	0	1	0	n/a	n/a	0.0	0	0	0	FR2	1	R1022J
1238.235	1.6	1307568	WORD	n/a	wordpools/wordpool_EN.txt	SHIRT	2	12	[0, 0, 0]	n/a	0	1	0	n/a	n/a	0.0	0	0	0	FR2	1	R1022J
1240.629	4.6	1309962	STIM_ON	n/a	n/a	n/a	-999	12	[0, 0, 0]	n/a	1	1	4600	LB3	LB4	1000.0	50	230	300	FR2	1	R1022J
1240.839	1.6	1310172	WORD	n/a	wordpools/wordpool_EN.txt	CAKE	3	12	[0, 0, 0]	n/a	1	1	4600	LB3	LB4	1000.0	50	230	300	FR2	1	R1022J
1243.445	1.6	1312778	WORD	n/a	wordpools/wordpool_EN.txt	PARK	4	12	[0, 0, 0]	n/a	1	1	4600	LB3	LB4	1000.0	50	230	300	FR2	1	R1022J
1246.014	1.6	1315347	WORD	n/a	wordpools/wordpool_EN.txt	PIG	5	12	[0, 0, 0]	n/a	0	1	0	n/a	n/a	0.0	0	0	0	FR2	1	R1022J
1248.569	1.6	1317902	WORD	n/a	wordpools/wordpool_EN.txt	PLANE	6	12	[0, 0, 0]	n/a	0	1	0	n/a	n/a	0.0	0	0	0	FR2	1	R1022J
1250.746	4.6	1320079	STIM_ON	n/a	n/a	n/a	-999	12	[0, 0, 0]	n/a	1	1	4600	LB3	LB4	1000.0	50	230	300	FR2	1	R1022J
1250.956	1.6	1320289	WORD	n/a	wordpools/wordpool_EN.txt	MAT	7	12	[0, 0, 0]	n/a	1	1	4600	LB3	LB4	1000.0	50	230	300	FR2	1	R1022J
1253.528	1.6	1322861	WORD	n/a	wordpools/wordpool_EN.txt	TRAIN	8	12	[0, 0, 0]	n/a	1	1	4600	LB3	LB4	1000.0	50	230	300	FR2	1	R1022J
1255.914	1.6	1325247	WORD	n/a	wordpools/wordpool_EN.txt	STEAK	9	12	[0, 0, 0]	n/a	0	1	0	n/a	n/a	0.0	0	0	0	FR2	1	R1022J
1258.336	1.6	1327669	WORD	n/a	wordpools/wordpool_EN.txt	PURSE	10	12	[0, 0, 0]	n/a	0	1	0	n/a	n/a	0.0	0	0	0	FR2	1	R1022J
1260.605	4.6	1329938	STIM_ON	n/a	n/a	n/a	-999	12	[0, 0, 0]	n/a	1	1	4600	LB3	LB4	1000.0	50	230	300	FR2	1	R1022J
1260.823	1.6	1330156	WORD	n/a	wordpools/wordpool_EN.txt	FUDGE	11	12	[0, 0, 0]	n/a	1	1	4600	LB3	LB4	1000.0	50	230	300	FR2	1	R1022J
1263.394	1.6	1332727	WORD	n/a	wordpools/wordpool_EN.txt	PET	12	12	[0, 0, 0]	n/a	1	1	4600	LB3	LB4	1000.0	50	230	300	FR2	1	R1022J
1265.013	0.001	1334345	DISTRACT_START	n/a	n/a	n/a	-999	12	[0, 0, 0]	n/a	1	1	4600	LB3	LB4	1000.0	50	230	300	FR2	1	R1022J
1265.014	0.016	1334346	START	n/a	n/a	n/a	-999	12	[-999, -999, -999]	n/a	0	1	0	n/a	n/a	0.0	0	0	0	FR2	1	R1022J
1265.03	5.743	1334362	PROB	5.707	n/a	n/a	-999	12	[7, 2, 3]	12	0	1	0	n/a	n/a	0.0	0	0	0	FR2	1	R1022J
1270.773	11.001	1340105	PROB	10.973	n/a	n/a	-999	12	[9, 8, 8]	25	0	1	0	n/a	n/a	0.0	0	0	0	FR2	1	R1022J
1281.774	4.204	1351106	PROB	4.204	n/a	n/a	-999	12	[4, 2, 9]	15	0	1	0	n/a	n/a	0.0	0	0	0	FR2	1	R1022J
1285.978	0.021	1355310	STOP	n/a	n/a	n/a	-999	12	[-999, -999, -999]	n/a	0	1	0	n/a	n/a	0.0	0	0	0	FR2	1	R1022J
1285.999	1.035	1355331	DISTRACT_END	n/a	n/a	n/a	-999	12	[0, 0, 0]	n/a	0	1	0	n/a	n/a	0.0	0	0	0	FR2	1	R1022J
1287.034	5.076	1356366	REC_START	n/a	n/a	n/a	-999	12	[0, 0, 0]	n/a	0	1	0	n/a	n/a	0.0	0	0	0	FR2	1	R1022J
1292.11	1.272	1361441	REC_WORD	5.076	n/a	TRAIN	-999	12	[0, 0, 0]	n/a	0	1	0	n/a	n/a	0.0	0	0	0	FR2	1	R1022J
1293.382	0.888	1362713	REC_WORD	6.348	n/a	PULSE	-999	12	[0, 0, 0]	n/a	0	1	0	n/a	n/a	0.0	0	0	0	FR2	1	R1022J
1294.27	0.783	1363601	REC_WORD	7.236	n/a	CAKE	-999	12	[0, 0, 0]	n/a	0	1	0	n/a	n/a	0.0	0	0	0	FR2	1	R1022J
1295.053	10.344	1364384	REC_WORD	8.019	n/a	SHIRT	-999	12	[0, 0, 0]	n/a	0	1	0	n/a	n/a	0.0	0	0	0	FR2	1	R1022J
1305.397	2.671	1374728	REC_WORD	18.363	n/a	DOG	-999	12	[0, 0, 0]	n/a	0	1	0	n/a	n/a	0.0	0	0	0	FR2	1	R1022J
1308.068	8.981	1377399	REC_WORD	21.034	n/a	PULSE	-999	12	[0, 0, 0]	n/a	0	1	0	n/a	n/a	0.0	0	0	0	FR2	1	R1022J
1317.049	2.256	1386380	REC_END	n/a	n/a	n/a	-999	12	[0, 0, 0]	n/a	0	1	0	n/a	n/a	0.0	0	0	0	FR2	1	R1022J
1319.305	10.0	1388636	COUNTDOWN_START	n/a	n/a	n/a	-999	13	[0, 0, 0]	n/a	0	1	0	n/a	n/a	0.0	0	0	0	FR2	1	R1022J
1319.306	10.427	1388637	TRIAL	n/a	n/a	n/a	-999	13	[0, 0, 0]	n/a	0	1	0	n/a	n/a	0.0	0	0	0	FR2	1	R1022J
1329.733	0.005	1399063	COUNTDOWN_END	n/a	n/a	n/a	-999	13	[0, 0, 0]	n/a	0	1	0	n/a	n/a	0.0	0	0	0	FR2	1	R1022J
1329.738	1.6	1399068	ORIENT	n/a	n/a	n/a	-999	13	[0, 0, 0]	n/a	0	1	0	n/a	n/a	0.0	0	0	0	FR2	1	R1022J
1332.361	1.6	1401691	WORD	n/a	wordpools/wordpool_EN.txt	NAIL	1	13	[0, 0, 0]	n/a	0	1	0	n/a	n/a	0.0	0	0	0	FR2	1	R1022J
1334.764	1.6	1404094	WORD	n/a	wordpools/wordpool_EN.txt	JAIL	2	13	[0, 0, 0]	n/a	0	1	0	n/a	n/a	0.0	0	0	0	FR2	1	R1022J
1336.95	4.6	1406280	STIM_ON	n/a	n/a	n/a	-999	13	[0, 0, 0]	n/a	1	1	4600	LB3	LB4	1000.0	50	230	300	FR2	1	R1022J
1337.168	1.6	1406498	WORD	n/a	wordpools/wordpool_EN.txt	HOSE	3	13	[0, 0, 0]	n/a	1	1	4600	LB3	LB4	1000.0	50	230	300	FR2	1	R1022J
1339.772	1.6	1409102	WORD	n/a	wordpools/wordpool_EN.txt	SKI	4	13	[0, 0, 0]	n/a	1	1	4600	LB3	LB4	1000.0	50	230	300	FR2	1	R1022J
1342.327	1.6	1411657	WORD	n/a	wordpools/wordpool_EN.txt	DOCK	5	13	[0, 0, 0]	n/a	0	1	0	n/a	n/a	0.0	0	0	0	FR2	1	R1022J
1344.897	1.6	1414227	WORD	n/a	wordpools/wordpool_EN.txt	BOMB	6	13	[0, 0, 0]	n/a	0	1	0	n/a	n/a	0.0	0	0	0	FR2	1	R1022J
1347.193	4.6	1416523	STIM_ON	n/a	n/a	n/a	-999	13	[0, 0, 0]	n/a	1	1	4600	LB3	LB4	1000.0	50	230	300	FR2	1	R1022J
1347.403	1.6	1416732	WORD	n/a	wordpools/wordpool_EN.txt	HOOF	7	13	[0, 0, 0]	n/a	1	1	4600	LB3	LB4	1000.0	50	230	300	FR2	1	R1022J
1349.806	1.6	1419135	WORD	n/a	wordpools/wordpool_EN.txt	KEY	8	13	[0, 0, 0]	n/a	1	1	4600	LB3	LB4	1000.0	50	230	300	FR2	1	R1022J
1352.411	1.6	1421740	WORD	n/a	wordpools/wordpool_EN.txt	LAND	9	13	[0, 0, 0]	n/a	0	1	0	n/a	n/a	0.0	0	0	0	FR2	1	R1022J
1354.797	1.6	1424126	WORD	n/a	wordpools/wordpool_EN.txt	BOOT	10	13	[0, 0, 0]	n/a	0	1	0	n/a	n/a	0.0	0	0	0	FR2	1	R1022J
1357.18	4.6	1426509	STIM_ON	n/a	n/a	n/a	-999	13	[0, 0, 0]	n/a	1	1	4600	LB3	LB4	1000.0	50	230	300	FR2	1	R1022J
1357.386	1.6	1426715	WORD	n/a	wordpools/wordpool_EN.txt	LAKE	11	13	[0, 0, 0]	n/a	1	1	4600	LB3	LB4	1000.0	50	230	300	FR2	1	R1022J
1359.923	1.6	1429252	WORD	n/a	wordpools/wordpool_EN.txt	BOOK	12	13	[0, 0, 0]	n/a	1	1	4600	LB3	LB4	1000.0	50	230	300	FR2	1	R1022J
1361.526	0.001	1430855	DISTRACT_START	n/a	n/a	n/a	-999	13	[0, 0, 0]	n/a	1	1	4600	LB3	LB4	1000.0	50	230	300	FR2	1	R1022J
1361.527	0.016	1430856	START	n/a	n/a	n/a	-999	13	[-999, -999, -999]	n/a	0	1	0	n/a	n/a	0.0	0	0	0	FR2	1	R1022J
1361.543	4.039	1430872	PROB	4.01	n/a	n/a	-999	13	[1, 7, 9]	17	0	1	0	n/a	n/a	0.0	0	0	0	FR2	1	R1022J
1365.582	12.404	1434911	PROB	12.371	n/a	n/a	-999	13	[7, 7, 5]	19	0	1	0	n/a	n/a	0.0	0	0	0	FR2	1	R1022J
1377.986	3.863	1447314	PROB	3.863	n/a	n/a	-999	13	[5, 7, 5]	17	0	1	0	n/a	n/a	0.0	0	0	0	FR2	1	R1022J
1381.849	0.011	1451177	STOP	n/a	n/a	n/a	-999	13	[-999, -999, -999]	n/a	0	1	0	n/a	n/a	0.0	0	0	0	FR2	1	R1022J
1381.86	1.219	1451188	DISTRACT_END	n/a	n/a	n/a	-999	13	[0, 0, 0]	n/a	0	1	0	n/a	n/a	0.0	0	0	0	FR2	1	R1022J
1383.079	3.628	1452407	REC_START	n/a	n/a	n/a	-999	13	[0, 0, 0]	n/a	0	1	0	n/a	n/a	0.0	0	0	0	FR2	1	R1022J
1386.707	0.839	1456035	REC_WORD	3.628	n/a	HORSE	-999	13	[0, 0, 0]	n/a	0	1	0	n/a	n/a	0.0	0	0	0	FR2	1	R1022J
1387.546	0.97	1456874	REC_WORD	4.467	n/a	HOOF	-999	13	[0, 0, 0]	n/a	0	1	0	n/a	n/a	0.0	0	0	0	FR2	1	R1022J
1388.516	0.902	1457844	REC_WORD	5.437	n/a	BOOT	-999	13	[0, 0, 0]	n/a	0	1	0	n/a	n/a	0.0	0	0	0	FR2	1	R1022J
1389.418	2.99	1458746	REC_WORD	6.339	n/a	ROOF	-999	13	[0, 0, 0]	n/a	0	1	0	n/a	n/a	0.0	0	0	0	FR2	1	R1022J
1392.408	1.613	1461736	REC_WORD	9.329	n/a	SAIL	-999	13	[0, 0, 0]	n/a	0	1	0	n/a	n/a	0.0	0	0	0	FR2	1	R1022J
1394.021	12.007	1463349	REC_WORD	10.942	n/a	SEAL	-999	13	[0, 0, 0]	n/a	0	1	0	n/a	n/a	0.0	0	0	0	FR2	1	R1022J
1406.028	7.065	1475355	REC_WORD	22.949	n/a	HORSE	-999	13	[0, 0, 0]	n/a	0	1	0	n/a	n/a	0.0	0	0	0	FR2	1	R1022J
1413.093	2.089	1482420	REC_END	n/a	n/a	n/a	-999	13	[0, 0, 0]	n/a	0	1	0	n/a	n/a	0.0	0	0	0	FR2	1	R1022J
1415.182	10.0	1484509	COUNTDOWN_START	n/a	n/a	n/a	-999	14	[0, 0, 0]	n/a	0	1	0	n/a	n/a	0.0	0	0	0	FR2	1	R1022J
1415.183	10.427	1484510	TRIAL	n/a	n/a	n/a	-999	14	[0, 0, 0]	n/a	0	1	0	n/a	n/a	0.0	0	0	0	FR2	1	R1022J
1425.61	0.007	1494937	COUNTDOWN_END	n/a	n/a	n/a	-999	14	[0, 0, 0]	n/a	0	1	0	n/a	n/a	0.0	0	0	0	FR2	1	R1022J
1425.617	1.6	1494944	ORIENT	n/a	n/a	n/a	-999	14	[0, 0, 0]	n/a	0	1	0	n/a	n/a	0.0	0	0	0	FR2	1	R1022J
1428.021	1.6	1497348	WORD	n/a	wordpools/wordpool_EN.txt	ARM	1	14	[0, 0, 0]	n/a	0	1	0	n/a	n/a	0.0	0	0	0	FR2	1	R1022J
1430.642	1.6	1499969	WORD	n/a	wordpools/wordpool_EN.txt	VASE	2	14	[0, 0, 0]	n/a	0	1	0	n/a	n/a	0.0	0	0	0	FR2	1	R1022J
1432.99	4.6	1502316	STIM_ON	n/a	n/a	n/a	-999	14	[0, 0, 0]	n/a	1	1	4600	LB3	LB4	1000.0	50	230	300	FR2	1	R1022J
1433.196	1.6	1502522	WORD	n/a	wordpools/wordpool_EN.txt	TRAY	3	14	[0, 0, 0]	n/a	1	1	4600	LB3	LB4	1000.0	50	230	300	FR2	1	R1022J
1435.583	1.6	1504909	WORD	n/a	wordpools/wordpool_EN.txt	BAG	4	14	[0, 0, 0]	n/a	1	1	4600	LB3	LB4	1000.0	50	230	300	FR2	1	R1022J
1438.121	1.6	1507447	WORD	n/a	wordpools/wordpool_EN.txt	DOLL	5	14	[0, 0, 0]	n/a	0	1	0	n/a	n/a	0.0	0	0	0	FR2	1	R1022J
1440.725	1.6	1510051	WORD	n/a	wordpools/wordpool_EN.txt	BALL	6	14	[0, 0, 0]	n/a	0	1	0	n/a	n/a	0.0	0	0	0	FR2	1	R1022J
1443.012	4.6	1512338	STIM_ON	n/a	n/a	n/a	-999	14	[0, 0, 0]	n/a	1	1	4600	LB3	LB4	1000.0	50	230	300	FR2	1	R1022J
1443.229	1.6	1512555	WORD	n/a	wordpools/wordpool_EN.txt	SOCK	7	14	[0, 0, 0]	n/a	1	1	4600	LB3	LB4	1000.0	50	230	300	FR2	1	R1022J
1445.834	1.6	1515160	WORD	n/a	wordpools/wordpool_EN.txt	PEAR	8	14	[0, 0, 0]	n/a	1	1	4600	LB3	LB4	1000.0	50	230	300	FR2	1	R1022J
1448.272	1.6	1517598	WORD	n/a	wordpools/wordpool_EN.txt	FOOT	9	14	[0, 0, 0]	n/a	0	1	0	n/a	n/a	0.0	0	0	0	FR2	1	R1022J
1450.876	1.6	1520202	WORD	n/a	wordpools/wordpool_EN.txt	CANE	10	14	[0, 0, 0]	n/a	0	1	0	n/a	n/a	0.0	0	0	0	FR2	1	R1022J
1453.096	4.6	1522422	STIM_ON	n/a	n/a	n/a	-999	14	[0, 0, 0]	n/a	1	1	4600	LB3	LB4	1000.0	50	230	300	FR2	1	R1022J
1453.314	1.6	1522640	WORD	n/a	wordpools/wordpool_EN.txt	STRING	11	14	[0, 0, 0]	n/a	1	1	4600	LB3	LB4	1000.0	50	230	300	FR2	1	R1022J
1455.901	1.6	1525227	WORD	n/a	wordpools/wordpool_EN.txt	OAR	12	14	[0, 0, 0]	n/a	1	1	4600	LB3	LB4	1000.0	50	230	300	FR2	1	R1022J
1457.505	0.0	1526831	DISTRACT_START	n/a	n/a	n/a	-999	14	[0, 0, 0]	n/a	1	1	4600	LB3	LB4	1000.0	50	230	300	FR2	1	R1022J
1457.505	0.016	1526831	START	n/a	n/a	n/a	-999	14	[-999, -999, -999]	n/a	0	1	0	n/a	n/a	0.0	0	0	0	FR2	1	R1022J
1457.521	3.138	1526847	PROB	3.112	n/a	n/a	-999	14	[1, 5, 5]	11	0	1	0	n/a	n/a	0.0	0	0	0	FR2	1	R1022J
1460.659	2.622	1529984	PROB	2.59	n/a	n/a	-999	14	[9, 1, 2]	12	0	1	0	n/a	n/a	0.0	0	0	0	FR2	1	R1022J
1463.281	3.488	1532606	PROB	3.465	n/a	n/a	-999	14	[2, 1, 8]	11	0	1	0	n/a	n/a	0.0	0	0	0	FR2	1	R1022J
1466.769	9.166	1536094	PROB	9.128	n/a	n/a	-999	14	[1, 5, 1]	7	0	1	0	n/a	n/a	0.0	0	0	0	FR2	1	R1022J
1475.935	4.202	1545260	PROB	4.202	n/a	n/a	-999	14	[4, 4, 6]	14	0	1	0	n/a	n/a	0.0	0	0	0	FR2	1	R1022J
1480.137	0.021	1549462	STOP	n/a	n/a	n/a	-999	14	[-999, -999, -999]	n/a	0	1	0	n/a	n/a	0.0	0	0	0	FR2	1	R1022J
1480.158	1.086	1549483	DISTRACT_END	n/a	n/a	n/a	-999	14	[0, 0, 0]	n/a	0	1	0	n/a	n/a	0.0	0	0	0	FR2	1	R1022J
1481.244	8.327	1550569	REC_START	n/a	n/a	n/a	-999	14	[0, 0, 0]	n/a	0	1	0	n/a	n/a	0.0	0	0	0	FR2	1	R1022J
1489.571	8.016	1558895	REC_WORD	8.327	n/a	CANE	-999	14	[0, 0, 0]	n/a	0	1	0	n/a	n/a	0.0	0	0	0	FR2	1	R1022J
1497.587	6.429	1566911	REC_WORD	16.343	n/a	PEAR	-999	14	[0, 0, 0]	n/a	0	1	0	n/a	n/a	0.0	0	0	0	FR2	1	R1022J
1504.016	7.244	1573340	REC_WORD	22.772	n/a	SEAR	-999	14	[0, 0, 0]	n/a	0	1	0	n/a	n/a	0.0	0	0	0	FR2	1	R1022J
1511.26	2.638	1580584	REC_END	n/a	n/a	n/a	-999	14	[0, 0, 0]	n/a	0	1	0	n/a	n/a	0.0	0	0	0	FR2	1	R1022J
1513.898	10.0	1583222	COUNTDOWN_START	n/a	n/a	n/a	-999	15	[0, 0, 0]	n/a	0	1	0	n/a	n/a	0.0	0	0	0	FR2	1	R1022J
1513.899	10.427	1583223	TRIAL	n/a	n/a	n/a	-999	15	[0, 0, 0]	n/a	0	1	0	n/a	n/a	0.0	0	0	0	FR2	1	R1022J
1524.326	0.008	1593649	COUNTDOWN_END	n/a	n/a	n/a	-999	15	[0, 0, 0]	n/a	0	1	0	n/a	n/a	0.0	0	0	0	FR2	1	R1022J
1524.334	1.6	1593657	ORIENT	n/a	n/a	n/a	-999	15	[0, 0, 0]	n/a	0	1	0	n/a	n/a	0.0	0	0	0	FR2	1	R1022J
1526.954	1.6	1596277	WORD	n/a	wordpools/wordpool_EN.txt	MOUSE	1	15	[0, 0, 0]	n/a	0	1	0	n/a	n/a	0.0	0	0	0	FR2	1	R1022J
1529.509	1.6	1598832	WORD	n/a	wordpools/wordpool_EN.txt	CROW	2	15	[0, 0, 0]	n/a	0	1	0	n/a	n/a	0.0	0	0	0	FR2	1	R1022J
1531.793	4.6	1601116	STIM_ON	n/a	n/a	n/a	-999	15	[0, 0, 0]	n/a	1	1	4600	LB3	LB4	1000.0	50	230	300	FR2	1	R1022J
1532.012	1.6	1601335	WORD	n/a	wordpools/wordpool_EN.txt	ROAD	3	15	[0, 0, 0]	n/a	1	1	4600	LB3	LB4	1000.0	50	230	300	FR2	1	R1022J
1534.633	1.6	1603956	WORD	n/a	wordpools/wordpool_EN.txt	GRASS	4	15	[0, 0, 0]	n/a	1	1	4600	LB3	LB4	1000.0	50	230	300	FR2	1	R1022J
1537.087	1.6	1606410	WORD	n/a	wordpools/wordpool_EN.txt	DRUM	5	15	[0, 0, 0]	n/a	0	1	0	n/a	n/a	0.0	0	0	0	FR2	1	R1022J
1539.658	1.6	1608981	WORD	n/a	wordpools/wordpool_EN.txt	WEB	6	15	[0, 0, 0]	n/a	0	1	0	n/a	n/a	0.0	0	0	0	FR2	1	R1022J
1541.819	4.6	1611142	STIM_ON	n/a	n/a	n/a	-999	15	[0, 0, 0]	n/a	1	1	4600	LB3	LB4	1000.0	50	230	300	FR2	1	R1022J
1542.029	1.6	1611351	WORD	n/a	wordpools/wordpool_EN.txt	FLUTE	7	15	[0, 0, 0]	n/a	1	1	4600	LB3	LB4	1000.0	50	230	300	FR2	1	R1022J
1544.417	1.6	1613739	WORD	n/a	wordpools/wordpool_EN.txt	RAIN	8	15	[0, 0, 0]	n/a	1	1	4600	LB3	LB4	1000.0	50	230	300	FR2	1	R1022J
1546.854	1.6	1616176	WORD	n/a	wordpools/wordpool_EN.txt	CALF	9	15	[0, 0, 0]	n/a	0	1	0	n/a	n/a	0.0	0	0	0	FR2	1	R1022J
1549.426	1.6	1618748	WORD	n/a	wordpools/wordpool_EN.txt	PRINCE	10	15	[0, 0, 0]	n/a	0	1	0	n/a	n/a	0.0	0	0	0	FR2	1	R1022J
1551.646	4.6	1620968	STIM_ON	n/a	n/a	n/a	-999	15	[0, 0, 0]	n/a	1	1	4600	LB3	LB4	1000.0	50	230	300	FR2	1	R1022J
1551.862	1.6	1621184	WORD	n/a	wordpools/wordpool_EN.txt	SHELL	11	15	[0, 0, 0]	n/a	1	1	4600	LB3	LB4	1000.0	50	230	300	FR2	1	R1022J
1554.418	1.6	1623740	WORD	n/a	wordpools/wordpool_EN.txt	WOLF	12	15	[0, 0, 0]	n/a	1	1	4600	LB3	LB4	1000.0	50	230	300	FR2	1	R1022J
1556.036	0.001	1625358	DISTRACT_START	n/a	n/a	n/a	-999	15	[0, 0, 0]	n/a	1	1	4600	LB3	LB4	1000.0	50	230	300	FR2	1	R1022J
1556.037	0.016	1625359	START	n/a	n/a	n/a	-999	15	[-999, -999, -999]	n/a	0	1	0	n/a	n/a	0.0	0	0	0	FR2	1	R1022J
1556.053	4.157	1625375	PROB	4.125	n/a	n/a	-999	15	[5, 7, 5]	17	0	1	0	n/a	n/a	0.0	0	0	0	FR2	1	R1022J
1560.21	6.394	1629532	PROB	6.359	n/a	n/a	-999	15	[3, 7, 5]	15	0	1	0	n/a	n/a	0.0	0	0	0	FR2	1	R1022J
1566.604	3.172	1635926	PROB	3.149	n/a	n/a	-999	15	[2, 5, 7]	14	0	1	0	n/a	n/a	0.0	0	0	0	FR2	1	R1022J
1569.776	3.122	1639097	PROB	3.09	n/a	n/a	-999	15	[1, 3, 6]	10	0	1	0	n/a	n/a	0.0	0	0	0	FR2	1	R1022J
1572.898	5.711	1642219	PROB	5.711	n/a	n/a	-999	15	[9, 4, 7]	20	0	1	0	n/a	n/a	0.0	0	0	0	FR2	1	R1022J
1578.609	0.015	1647930	STOP	n/a	n/a	n/a	-999	15	[-999, -999, -999]	n/a	0	1	0	n/a	n/a	0.0	0	0	0	FR2	1	R1022J
1578.624	1.069	1647945	DISTRACT_END	n/a	n/a	n/a	-999	15	[0, 0, 0]	n/a	0	1	0	n/a	n/a	0.0	0	0	0	FR2	1	R1022J
1579.693	2.785	1649014	REC_START	n/a	n/a	n/a	-999	15	[0, 0, 0]	n/a	0	1	0	n/a	n/a	0.0	0	0	0	FR2	1	R1022J
1582.478	0.782	1651799	REC_WORD	2.785	n/a	MOUSE	-999	15	[0, 0, 0]	n/a	0	1	0	n/a	n/a	0.0	0	0	0	FR2	1	R1022J
1583.26	0.964	1652581	REC_WORD	3.567	n/a	CROW	-999	15	[0, 0, 0]	n/a	0	1	0	n/a	n/a	0.0	0	0	0	FR2	1	R1022J
1584.224	3.009	1653545	REC_WORD	4.531	n/a	WEB	-999	15	[0, 0, 0]	n/a	0	1	0	n/a	n/a	0.0	0	0	0	FR2	1	R1022J
1587.233	2.701	1656554	REC_WORD	7.54	n/a	CALF	-999	15	[0, 0, 0]	n/a	0	1	0	n/a	n/a	0.0	0	0	0	FR2	1	R1022J
1589.934	6.483	1659255	REC_WORD	10.241	n/a	BARN	-999	15	[0, 0, 0]	n/a	0	1	0	n/a	n/a	0.0	0	0	0	FR2	1	R1022J
1596.417	13.29	1665738	REC_WORD	16.724	n/a	FIELD	-999	15	[0, 0, 0]	n/a	0	1	0	n/a	n/a	0.0	0	0	0	FR2	1	R1022J
1609.707	3.392	1679027	REC_END	n/a	n/a	n/a	-999	15	[0, 0, 0]	n/a	0	1	0	n/a	n/a	0.0	0	0	0	FR2	1	R1022J
1613.099	0.0	1682419	TRIAL	n/a	n/a	n/a	-999	16	[0, 0, 0]	n/a	0	0	0	n/a	n/a	0.0	0	0	0	FR2	1	R1022J
1613.099	10.0	1682419	COUNTDOWN_START	n/a	n/a	n/a	-999	16	[0, 0, 0]	n/a	0	0	0	n/a	n/a	0.0	0	0	0	FR2	1	R1022J
1623.527	0.007	1692847	COUNTDOWN_END	n/a	n/a	n/a	-999	16	[0, 0, 0]	n/a	0	0	0	n/a	n/a	0.0	0	0	0	FR2	1	R1022J
1623.534	1.6	1692854	ORIENT	n/a	n/a	n/a	-999	16	[0, 0, 0]	n/a	0	0	0	n/a	n/a	0.0	0	0	0	FR2	1	R1022J
1626.121	1.6	1695440	WORD	n/a	wordpools/wordpool_EN.txt	CHIEF	1	16	[0, 0, 0]	n/a	0	0	0	n/a	n/a	0.0	0	0	0	FR2	1	R1022J
1628.692	1.6	1698011	WORD	n/a	wordpools/wordpool_EN.txt	SCHOOL	2	16	[0, 0, 0]	n/a	0	0	0	n/a	n/a	0.0	0	0	0	FR2	1	R1022J
1631.129	1.6	1700448	WORD	n/a	wordpools/wordpool_EN.txt	TRUCK	3	16	[0, 0, 0]	n/a	0	0	0	n/a	n/a	0.0	0	0	0	FR2	1	R1022J
1633.75	1.6	1703069	WORD	n/a	wordpools/wordpool_EN.txt	SINK	4	16	[0, 0, 0]	n/a	0	0	0	n/a	n/a	0.0	0	0	0	FR2	1	R1022J
1636.121	1.6	1705440	WORD	n/a	wordpools/wordpool_EN.txt	BADGE	5	16	[0, 0, 0]	n/a	0	0	0	n/a	n/a	0.0	0	0	0	FR2	1	R1022J
1638.675	1.6	1707994	WORD	n/a	wordpools/wordpool_EN.txt	DRESS	6	16	[0, 0, 0]	n/a	0	0	0	n/a	n/a	0.0	0	0	0	FR2	1	R1022J
1641.181	1.6	1710500	WORD	n/a	wordpools/wordpool_EN.txt	SPOON	7	16	[0, 0, 0]	n/a	0	0	0	n/a	n/a	0.0	0	0	0	FR2	1	R1022J
1643.633	1.6	1712952	WORD	n/a	wordpools/wordpool_EN.txt	APE	8	16	[0, 0, 0]	n/a	0	0	0	n/a	n/a	0.0	0	0	0	FR2	1	R1022J
1646.138	1.6	1715457	WORD	n/a	wordpools/wordpool_EN.txt	DESK	9	16	[0, 0, 0]	n/a	0	0	0	n/a	n/a	0.0	0	0	0	FR2	1	R1022J
1648.543	1.6	1717862	WORD	n/a	wordpools/wordpool_EN.txt	SEAT	10	16	[0, 0, 0]	n/a	0	0	0	n/a	n/a	0.0	0	0	0	FR2	1	R1022J
1650.996	1.6	1720315	WORD	n/a	wordpools/wordpool_EN.txt	SMILE	11	16	[0, 0, 0]	n/a	0	0	0	n/a	n/a	0.0	0	0	0	FR2	1	R1022J
1653.617	1.6	1722935	WORD	n/a	wordpools/wordpool_EN.txt	FLAG	12	16	[0, 0, 0]	n/a	0	0	0	n/a	n/a	0.0	0	0	0	FR2	1	R1022J
1655.236	0.001	1724554	DISTRACT_START	n/a	n/a	n/a	-999	16	[0, 0, 0]	n/a	0	0	0	n/a	n/a	0.0	0	0	0	FR2	1	R1022J
1655.237	0.017	1724555	START	n/a	n/a	n/a	-999	16	[-999, -999, -999]	n/a	0	0	0	n/a	n/a	0.0	0	0	0	FR2	1	R1022J
1655.254	3.572	1724572	PROB	3.539	n/a	n/a	-999	16	[9, 7, 3]	19	0	0	0	n/a	n/a	0.0	0	0	0	FR2	1	R1022J
1658.826	3.839	1728144	PROB	3.807	n/a	n/a	-999	16	[9, 8, 2]	19	0	0	0	n/a	n/a	0.0	0	0	0	FR2	1	R1022J
1662.665	7.848	1731983	PROB	7.809	n/a	n/a	-999	16	[6, 8, 8]	24	0	0	0	n/a	n/a	0.0	0	0	0	FR2	1	R1022J
1670.513	2.938	1739831	PROB	2.906	n/a	n/a	-999	16	[1, 1, 3]	5	0	0	0	n/a	n/a	0.0	0	0	0	FR2	1	R1022J
1673.451	4.134	1742769	PROB	4.134	n/a	n/a	-999	16	[7, 7, 9]	23	0	0	0	n/a	n/a	0.0	0	0	0	FR2	1	R1022J
1677.585	0.022	1746903	STOP	n/a	n/a	n/a	-999	16	[-999, -999, -999]	n/a	0	0	0	n/a	n/a	0.0	0	0	0	FR2	1	R1022J
1677.607	1.136	1746925	DISTRACT_END	n/a	n/a	n/a	-999	16	[0, 0, 0]	n/a	0	0	0	n/a	n/a	0.0	0	0	0	FR2	1	R1022J
1678.743	1.777	1748061	REC_START	n/a	n/a	n/a	-999	16	[0, 0, 0]	n/a	0	0	0	n/a	n/a	0.0	0	0	0	FR2	1	R1022J
1680.52	0.76	1749838	REC_WORD	1.777	n/a	CHIEF	-999	16	[0, 0, 0]	n/a	0	0	0	n/a	n/a	0.0	0	0	0	FR2	1	R1022J
1681.28	0.745	1750597	REC_WORD	2.537	n/a	TRUCK	-999	16	[0, 0, 0]	n/a	0	0	0	n/a	n/a	0.0	0	0	0	FR2	1	R1022J
1682.025	18.501	1751342	REC_WORD	3.282	n/a	SCHOOL	-999	16	[0, 0, 0]	n/a	0	0	0	n/a	n/a	0.0	0	0	0	FR2	1	R1022J
1700.526	8.232	1769843	REC_WORD	21.783	n/a	SHARE	-999	16	[0, 0, 0]	n/a	0	0	0	n/a	n/a	0.0	0	0	0	FR2	1	R1022J
1708.758	2.155	1778074	REC_END	n/a	n/a	n/a	-999	16	[0, 0, 0]	n/a	0	0	0	n/a	n/a	0.0	0	0	0	FR2	1	R1022J
1710.913	10.0	1780229	COUNTDOWN_START	n/a	n/a	n/a	-999	17	[0, 0, 0]	n/a	0	0	0	n/a	n/a	0.0	0	0	0	FR2	1	R1022J
1710.914	10.427	1780230	TRIAL	n/a	n/a	n/a	-999	17	[0, 0, 0]	n/a	0	0	0	n/a	n/a	0.0	0	0	0	FR2	1	R1022J
1721.341	0.008	1790657	COUNTDOWN_END	n/a	n/a	n/a	-999	17	[0, 0, 0]	n/a	0	0	0	n/a	n/a	0.0	0	0	0	FR2	1	R1022J
1721.349	1.6	1790665	ORIENT	n/a	n/a	n/a	-999	17	[0, 0, 0]	n/a	0	0	0	n/a	n/a	0.0	0	0	0	FR2	1	R1022J
1723.818	1.6	1793134	WORD	n/a	wordpools/wordpool_EN.txt	FOX	1	17	[0, 0, 0]	n/a	0	0	0	n/a	n/a	0.0	0	0	0	FR2	1	R1022J
1726.273	1.6	1795589	WORD	n/a	wordpools/wordpool_EN.txt	TENT	2	17	[0, 0, 0]	n/a	0	0	0	n/a	n/a	0.0	0	0	0	FR2	1	R1022J
1728.894	1.6	1798210	WORD	n/a	wordpools/wordpool_EN.txt	PIE	3	17	[0, 0, 0]	n/a	0	0	0	n/a	n/a	0.0	0	0	0	FR2	1	R1022J
1731.299	1.6	1800615	WORD	n/a	wordpools/wordpool_EN.txt	CAVE	4	17	[0, 0, 0]	n/a	0	0	0	n/a	n/a	0.0	0	0	0	FR2	1	R1022J
1733.752	1.6	1803068	WORD	n/a	wordpools/wordpool_EN.txt	SOUP	5	17	[0, 0, 0]	n/a	0	0	0	n/a	n/a	0.0	0	0	0	FR2	1	R1022J
1736.257	1.6	1805573	WORD	n/a	wordpools/wordpool_EN.txt	STICK	6	17	[0, 0, 0]	n/a	0	0	0	n/a	n/a	0.0	0	0	0	FR2	1	R1022J
1738.677	1.6	1807992	WORD	n/a	wordpools/wordpool_EN.txt	MOOSE	7	17	[0, 0, 0]	n/a	0	0	0	n/a	n/a	0.0	0	0	0	FR2	1	R1022J
1741.181	1.6	1810496	WORD	n/a	wordpools/wordpool_EN.txt	SKUNK	8	17	[0, 0, 0]	n/a	0	0	0	n/a	n/a	0.0	0	0	0	FR2	1	R1022J
1743.735	1.6	1813050	WORD	n/a	wordpools/wordpool_EN.txt	SEAL	9	17	[0, 0, 0]	n/a	0	0	0	n/a	n/a	0.0	0	0	0	FR2	1	R1022J
1746.274	1.6	1815589	WORD	n/a	wordpools/wordpool_EN.txt	BREAD	10	17	[0, 0, 0]	n/a	0	0	0	n/a	n/a	0.0	0	0	0	FR2	1	R1022J
1748.777	1.6	1818092	WORD	n/a	wordpools/wordpool_EN.txt	GATE	11	17	[0, 0, 0]	n/a	0	0	0	n/a	n/a	0.0	0	0	0	FR2	1	R1022J
1751.231	1.6	1820546	WORD	n/a	wordpools/wordpool_EN.txt	TAIL	12	17	[0, 0, 0]	n/a	0	0	0	n/a	n/a	0.0	0	0	0	FR2	1	R1022J
1752.85	0.001	1822165	DISTRACT_START	n/a	n/a	n/a	-999	17	[0, 0, 0]	n/a	0	0	0	n/a	n/a	0.0	0	0	0	FR2	1	R1022J
1752.851	0.016	1822166	START	n/a	n/a	n/a	-999	17	[-999, -999, -999]	n/a	0	0	0	n/a	n/a	0.0	0	0	0	FR2	1	R1022J
1752.867	3.356	1822182	PROB	3.318	n/a	n/a	-999	17	[1, 9, 7]	17	0	0	0	n/a	n/a	0.0	0	0	0	FR2	1	R1022J
1756.223	6.511	1825538	PROB	6.475	n/a	n/a	-999	17	[9, 6, 7]	23	0	0	0	n/a	n/a	0.0	0	0	0	FR2	1	R1022J
1762.734	6.645	1832049	PROB	6.612	n/a	n/a	-999	17	[5, 1, 8]	14	0	0	0	n/a	n/a	0.0	0	0	0	FR2	1	R1022J
1769.379	4.823	1838693	PROB	4.823	n/a	n/a	-999	17	[5, 2, 2]	9	0	0	0	n/a	n/a	0.0	0	0	0	FR2	1	R1022J
1774.202	0.018	1843516	STOP	n/a	n/a	n/a	-999	17	[-999, -999, -999]	n/a	0	0	0	n/a	n/a	0.0	0	0	0	FR2	1	R1022J
1774.22	1.187	1843534	DISTRACT_END	n/a	n/a	n/a	-999	17	[0, 0, 0]	n/a	0	0	0	n/a	n/a	0.0	0	0	0	FR2	1	R1022J
1775.407	1.726	1844721	REC_START	n/a	n/a	n/a	-999	17	[0, 0, 0]	n/a	0	0	0	n/a	n/a	0.0	0	0	0	FR2	1	R1022J
1777.133	0.652	1846447	REC_WORD	1.726	n/a	TENT	-999	17	[0, 0, 0]	n/a	0	0	0	n/a	n/a	0.0	0	0	0	FR2	1	R1022J
1777.785	0.658	1847099	REC_WORD	2.378	n/a	PIE	-999	17	[0, 0, 0]	n/a	0	0	0	n/a	n/a	0.0	0	0	0	FR2	1	R1022J
1778.443	0.538	1847757	REC_WORD	3.036	n/a	CAVE	-999	17	[0, 0, 0]	n/a	0	0	0	n/a	n/a	0.0	0	0	0	FR2	1	R1022J
1778.981	0.739	1848295	REC_WORD	3.574	n/a	SOUP	-999	17	[0, 0, 0]	n/a	0	0	0	n/a	n/a	0.0	0	0	0	FR2	1	R1022J
1779.72	20.144	1849034	REC_WORD	4.313	n/a	SINK	-999	17	[0, 0, 0]	n/a	0	0	0	n/a	n/a	0.0	0	0	0	FR2	1	R1022J
1799.864	5.558	1869177	REC_WORD	24.457	n/a	FLOOD	-999	17	[0, 0, 0]	n/a	0	0	0	n/a	n/a	0.0	0	0	0	FR2	1	R1022J
1805.422	2.055	1874735	REC_END	n/a	n/a	n/a	-999	17	[0, 0, 0]	n/a	0	0	0	n/a	n/a	0.0	0	0	0	FR2	1	R1022J
1807.477	10.0	1876790	COUNTDOWN_START	n/a	n/a	n/a	-999	18	[0, 0, 0]	n/a	0	1	0	n/a	n/a	0.0	0	0	0	FR2	1	R1022J
1807.477	10.428	1876790	TRIAL	n/a	n/a	n/a	-999	18	[0, 0, 0]	n/a	0	1	0	n/a	n/a	0.0	0	0	0	FR2	1	R1022J
1817.905	0.005	1887218	COUNTDOWN_END	n/a	n/a	n/a	-999	18	[0, 0, 0]	n/a	0	1	0	n/a	n/a	0.0	0	0	0	FR2	1	R1022J
1817.91	1.6	1887223	ORIENT	n/a	n/a	n/a	-999	18	[0, 0, 0]	n/a	0	1	0	n/a	n/a	0.0	0	0	0	FR2	1	R1022J
1820.415	1.6	1889727	WORD	n/a	wordpools/wordpool_EN.txt	INK	1	18	[0, 0, 0]	n/a	0	1	0	n/a	n/a	0.0	0	0	0	FR2	1	R1022J
1822.818	1.6	1892130	WORD	n/a	wordpools/wordpool_EN.txt	TEA	2	18	[0, 0, 0]	n/a	0	1	0	n/a	n/a	0.0	0	0	0	FR2	1	R1022J
1825.201	4.6	1894513	STIM_ON	n/a	n/a	n/a	-999	18	[0, 0, 0]	n/a	1	1	4600	LB3	LB4	1000.0	50	230	300	FR2	1	R1022J
1825.407	1.6	1894719	WORD	n/a	wordpools/wordpool_EN.txt	TOY	3	18	[0, 0, 0]	n/a	1	1	4600	LB3	LB4	1000.0	50	230	300	FR2	1	R1022J
1828.027	1.6	1897339	WORD	n/a	wordpools/wordpool_EN.txt	MULE	4	18	[0, 0, 0]	n/a	1	1	4600	LB3	LB4	1000.0	50	230	300	FR2	1	R1022J
1830.415	1.6	1899727	WORD	n/a	wordpools/wordpool_EN.txt	BOY	5	18	[0, 0, 0]	n/a	0	1	0	n/a	n/a	0.0	0	0	0	FR2	1	R1022J
1832.802	1.6	1902114	WORD	n/a	wordpools/wordpool_EN.txt	TIE	6	18	[0, 0, 0]	n/a	0	1	0	n/a	n/a	0.0	0	0	0	FR2	1	R1022J
1835.21	4.6	1904522	STIM_ON	n/a	n/a	n/a	-999	18	[0, 0, 0]	n/a	1	1	4600	LB3	LB4	1000.0	50	230	300	FR2	1	R1022J
1835.424	1.6	1904736	WORD	n/a	wordpools/wordpool_EN.txt	CLOTH	7	18	[0, 0, 0]	n/a	1	1	4600	LB3	LB4	1000.0	50	230	300	FR2	1	R1022J
1837.927	1.6	1907239	WORD	n/a	wordpools/wordpool_EN.txt	SPRING	8	18	[0, 0, 0]	n/a	1	1	4600	LB3	LB4	1000.0	50	230	300	FR2	1	R1022J
1840.432	1.6	1909744	WORD	n/a	wordpools/wordpool_EN.txt	SQUARE	9	18	[0, 0, 0]	n/a	0	1	0	n/a	n/a	0.0	0	0	0	FR2	1	R1022J
1842.819	1.6	1912131	WORD	n/a	wordpools/wordpool_EN.txt	PEACH	10	18	[0, 0, 0]	n/a	0	1	0	n/a	n/a	0.0	0	0	0	FR2	1	R1022J
1845.084	4.6	1914396	STIM_ON	n/a	n/a	n/a	-999	18	[0, 0, 0]	n/a	1	1	4600	LB3	LB4	1000.0	50	230	300	FR2	1	R1022J
1845.29	1.6	1914602	WORD	n/a	wordpools/wordpool_EN.txt	TOOL	11	18	[0, 0, 0]	n/a	1	1	4600	LB3	LB4	1000.0	50	230	300	FR2	1	R1022J
1847.877	1.6	1917188	WORD	n/a	wordpools/wordpool_EN.txt	PLATE	12	18	[0, 0, 0]	n/a	1	1	4600	LB3	LB4	1000.0	50	230	300	FR2	1	R1022J
1849.481	0.001	1918792	DISTRACT_START	n/a	n/a	n/a	-999	18	[0, 0, 0]	n/a	1	1	4600	LB3	LB4	1000.0	50	230	300	FR2	1	R1022J
1849.482	0.017	1918793	START	n/a	n/a	n/a	-999	18	[-999, -999, -999]	n/a	0	1	0	n/a	n/a	0.0	0	0	0	FR2	1	R1022J
1849.499	3.32	1918810	PROB	3.294	n/a	n/a	-999	18	[3, 7, 2]	12	0	1	0	n/a	n/a	0.0	0	0	0	FR2	1	R1022J
1852.819	3.457	1922130	PROB	3.431	n/a	n/a	-999	18	[4, 2, 4]	10	0	1	0	n/a	n/a	0.0	0	0	0	FR2	1	R1022J
1856.276	4.123	1925587	PROB	4.094	n/a	n/a	-999	18	[5, 3, 7]	15	0	1	0	n/a	n/a	0.0	0	0	0	FR2	1	R1022J
1860.399	4.908	1929710	PROB	4.883	n/a	n/a	-999	18	[5, 3, 5]	13	0	1	0	n/a	n/a	0.0	0	0	0	FR2	1	R1022J
1865.307	12.598	1934618	PROB	12.598	n/a	n/a	-999	18	[8, 7, 6]	21	0	1	0	n/a	n/a	0.0	0	0	0	FR2	1	R1022J
1877.905	0.006	1947215	STOP	n/a	n/a	n/a	-999	18	[-999, -999, -999]	n/a	0	1	0	n/a	n/a	0.0	0	0	0	FR2	1	R1022J
1877.911	1.186	1947221	DISTRACT_END	n/a	n/a	n/a	-999	18	[0, 0, 0]	n/a	0	1	0	n/a	n/a	0.0	0	0	0	FR2	1	R1022J
1879.097	5.111	1948407	REC_START	n/a	n/a	n/a	-999	18	[0, 0, 0]	n/a	0	1	0	n/a	n/a	0.0	0	0	0	FR2	1	R1022J
1884.208	0.82	1953518	REC_WORD	5.111	n/a	PEACH	-999	18	[0, 0, 0]	n/a	0	1	0	n/a	n/a	0.0	0	0	0	FR2	1	R1022J
1885.028	0.642	1954338	REC_WORD	5.931	n/a	TOOL	-999	18	[0, 0, 0]	n/a	0	1	0	n/a	n/a	0.0	0	0	0	FR2	1	R1022J
1885.67	3.39	1954980	REC_WORD	6.573	n/a	SEAL	-999	18	[0, 0, 0]	n/a	0	1	0	n/a	n/a	0.0	0	0	0	FR2	1	R1022J
1889.06	12.344	1958370	REC_WORD	9.963	n/a	CAVE	-999	18	[0, 0, 0]	n/a	0	1	0	n/a	n/a	0.0	0	0	0	FR2	1	R1022J
1901.404	7.707	1970714	REC_WORD	22.307	n/a	WAGON	-999	18	[0, 0, 0]	n/a	0	1	0	n/a	n/a	0.0	0	0	0	FR2	1	R1022J
1909.111	1.939	1978420	REC_END	n/a	n/a	n/a	-999	18	[0, 0, 0]	n/a	0	1	0	n/a	n/a	0.0	0	0	0	FR2	1	R1022J
1911.05	0.0	1980359	TRIAL	n/a	n/a	n/a	-999	19	[0, 0, 0]	n/a	0	1	0	n/a	n/a	0.0	0	0	0	FR2	1	R1022J
1911.05	10.0	1980359	COUNTDOWN_START	n/a	n/a	n/a	-999	19	[0, 0, 0]	n/a	0	1	0	n/a	n/a	0.0	0	0	0	FR2	1	R1022J
1921.478	0.007	1990787	COUNTDOWN_END	n/a	n/a	n/a	-999	19	[0, 0, 0]	n/a	0	1	0	n/a	n/a	0.0	0	0	0	FR2	1	R1022J
1921.485	1.6	1990794	ORIENT	n/a	n/a	n/a	-999	19	[0, 0, 0]	n/a	0	1	0	n/a	n/a	0.0	0	0	0	FR2	1	R1022J
1923.938	1.6	1993247	WORD	n/a	wordpools/wordpool_EN.txt	MAP	1	19	[0, 0, 0]	n/a	0	1	0	n/a	n/a	0.0	0	0	0	FR2	1	R1022J
1926.377	1.6	1995686	WORD	n/a	wordpools/wordpool_EN.txt	CORN	2	19	[0, 0, 0]	n/a	0	1	0	n/a	n/a	0.0	0	0	0	FR2	1	R1022J
1928.78	4.6	1998089	STIM_ON	n/a	n/a	n/a	-999	19	[0, 0, 0]	n/a	1	1	4600	LB3	LB4	1000.0	50	230	300	FR2	1	R1022J
1928.997	1.6	1998306	WORD	n/a	wordpools/wordpool_EN.txt	ROSE	3	19	[0, 0, 0]	n/a	1	1	4600	LB3	LB4	1000.0	50	230	300	FR2	1	R1022J
1931.601	1.6	2000909	WORD	n/a	wordpools/wordpool_EN.txt	ELF	4	19	[0, 0, 0]	n/a	1	1	4600	LB3	LB4	1000.0	50	230	300	FR2	1	R1022J
1934.172	1.6	2003480	WORD	n/a	wordpools/wordpool_EN.txt	CAPE	5	19	[0, 0, 0]	n/a	0	1	0	n/a	n/a	0.0	0	0	0	FR2	1	R1022J
1936.71	1.6	2006018	WORD	n/a	wordpools/wordpool_EN.txt	NET	6	19	[0, 0, 0]	n/a	0	1	0	n/a	n/a	0.0	0	0	0	FR2	1	R1022J
1939.03	4.6	2008338	STIM_ON	n/a	n/a	n/a	-999	19	[0, 0, 0]	n/a	1	1	4600	LB3	LB4	1000.0	50	230	300	FR2	1	R1022J
1939.248	1.6	2008556	WORD	n/a	wordpools/wordpool_EN.txt	SEA	7	19	[0, 0, 0]	n/a	1	1	4600	LB3	LB4	1000.0	50	230	300	FR2	1	R1022J
1941.885	1.6	2011193	WORD	n/a	wordpools/wordpool_EN.txt	SHEET	8	19	[0, 0, 0]	n/a	1	1	4600	LB3	LB4	1000.0	50	230	300	FR2	1	R1022J
1944.307	1.6	2013615	WORD	n/a	wordpools/wordpool_EN.txt	GOLD	9	19	[0, 0, 0]	n/a	0	1	0	n/a	n/a	0.0	0	0	0	FR2	1	R1022J
1946.91	1.6	2016218	WORD	n/a	wordpools/wordpool_EN.txt	CLAY	10	19	[0, 0, 0]	n/a	0	1	0	n/a	n/a	0.0	0	0	0	FR2	1	R1022J
1949.112	4.6	2018420	STIM_ON	n/a	n/a	n/a	-999	19	[0, 0, 0]	n/a	1	1	4600	LB3	LB4	1000.0	50	230	300	FR2	1	R1022J
1949.332	1.6	2018640	WORD	n/a	wordpools/wordpool_EN.txt	PEARL	11	19	[0, 0, 0]	n/a	1	1	4600	LB3	LB4	1000.0	50	230	300	FR2	1	R1022J
1951.835	1.6	2021143	WORD	n/a	wordpools/wordpool_EN.txt	COIN	12	19	[0, 0, 0]	n/a	1	1	4600	LB3	LB4	1000.0	50	230	300	FR2	1	R1022J
1953.439	0.001	2022747	DISTRACT_START	n/a	n/a	n/a	-999	19	[0, 0, 0]	n/a	1	1	4600	LB3	LB4	1000.0	50	230	300	FR2	1	R1022J
1953.44	0.017	2022748	START	n/a	n/a	n/a	-999	19	[-999, -999, -999]	n/a	0	1	0	n/a	n/a	0.0	0	0	0	FR2	1	R1022J
1953.457	3.922	2022765	PROB	3.889	n/a	n/a	-999	19	[1, 1, 8]	10	0	1	0	n/a	n/a	0.0	0	0	0	FR2	1	R1022J
1957.379	5.341	2026687	PROB	5.311	n/a	n/a	-999	19	[2, 3, 4]	9	0	1	0	n/a	n/a	0.0	0	0	0	FR2	1	R1022J
1962.72	4.559	2032027	PROB	4.521	n/a	n/a	-999	19	[3, 1, 5]	9	0	1	0	n/a	n/a	0.0	0	0	0	FR2	1	R1022J
1967.279	7.14	2036586	PROB	7.14	n/a	n/a	-999	19	[9, 5, 4]	18	0	1	0	n/a	n/a	0.0	0	0	0	FR2	1	R1022J
1974.419	0.022	2043726	STOP	n/a	n/a	n/a	-999	19	[-999, -999, -999]	n/a	0	1	0	n/a	n/a	0.0	0	0	0	FR2	1	R1022J
1974.441	1.069	2043748	DISTRACT_END	n/a	n/a	n/a	-999	19	[0, 0, 0]	n/a	0	1	0	n/a	n/a	0.0	0	0	0	FR2	1	R1022J
1975.51	4.199	2044817	REC_START	n/a	n/a	n/a	-999	19	[0, 0, 0]	n/a	0	1	0	n/a	n/a	0.0	0	0	0	FR2	1	R1022J
1979.709	0.714	2049016	REC_WORD	4.199	n/a	GOLD	-999	19	[0, 0, 0]	n/a	0	1	0	n/a	n/a	0.0	0	0	0	FR2	1	R1022J
1980.423	3.484	2049730	REC_WORD	4.913	n/a	CLAY	-999	19	[0, 0, 0]	n/a	0	1	0	n/a	n/a	0.0	0	0	0	FR2	1	R1022J
1983.907	6.664	2053214	REC_WORD_VV	8.397	n/a	<>	-999	19	[0, 0, 0]	n/a	0	1	0	n/a	n/a	0.0	0	0	0	FR2	1	R1022J
1990.571	4.495	2059877	REC_WORD	15.061	n/a	CHIP	-999	19	[0, 0, 0]	n/a	0	1	0	n/a	n/a	0.0	0	0	0	FR2	1	R1022J
1995.066	4.236	2064372	REC_WORD	19.556	n/a	BAND	-999	19	[0, 0, 0]	n/a	0	1	0	n/a	n/a	0.0	0	0	0	FR2	1	R1022J
1999.302	6.224	2068608	REC_WORD	23.792	n/a	WEAR	-999	19	[0, 0, 0]	n/a	0	1	0	n/a	n/a	0.0	0	0	0	FR2	1	R1022J
2005.526	1.838	2074832	REC_END	n/a	n/a	n/a	-999	19	[0, 0, 0]	n/a	0	1	0	n/a	n/a	0.0	0	0	0	FR2	1	R1022J
2007.364	10.0	2076670	COUNTDOWN_START	n/a	n/a	n/a	-999	20	[0, 0, 0]	n/a	0	1	0	n/a	n/a	0.0	0	0	0	FR2	1	R1022J
2007.364	10.428	2076670	TRIAL	n/a	n/a	n/a	-999	20	[0, 0, 0]	n/a	0	1	0	n/a	n/a	0.0	0	0	0	FR2	1	R1022J
2017.792	0.004	2087097	COUNTDOWN_END	n/a	n/a	n/a	-999	20	[0, 0, 0]	n/a	0	1	0	n/a	n/a	0.0	0	0	0	FR2	1	R1022J
2017.796	1.6	2087101	ORIENT	n/a	n/a	n/a	-999	20	[0, 0, 0]	n/a	0	1	0	n/a	n/a	0.0	0	0	0	FR2	1	R1022J
2020.089	4.6	2089394	STIM_ON	n/a	n/a	n/a	-999	20	[0, 0, 0]	n/a	1	1	4600	LB3	LB4	1000.0	50	230	300	FR2	1	R1022J
2020.302	1.6	2089607	WORD	n/a	wordpools/wordpool_EN.txt	CAR	1	20	[0, 0, 0]	n/a	1	1	4600	LB3	LB4	1000.0	50	230	300	FR2	1	R1022J
2022.755	1.6	2092060	WORD	n/a	wordpools/wordpool_EN.txt	STORE	2	20	[0, 0, 0]	n/a	1	1	4600	LB3	LB4	1000.0	50	230	300	FR2	1	R1022J
2025.344	1.6	2094649	WORD	n/a	wordpools/wordpool_EN.txt	PLANT	3	20	[0, 0, 0]	n/a	0	1	0	n/a	n/a	0.0	0	0	0	FR2	1	R1022J
2027.763	1.6	2097068	WORD	n/a	wordpools/wordpool_EN.txt	ROOT	4	20	[0, 0, 0]	n/a	0	1	0	n/a	n/a	0.0	0	0	0	FR2	1	R1022J
2029.927	4.6	2099232	STIM_ON	n/a	n/a	n/a	-999	20	[0, 0, 0]	n/a	1	1	4600	LB3	LB4	1000.0	50	230	300	FR2	1	R1022J
2030.134	1.6	2099439	WORD	n/a	wordpools/wordpool_EN.txt	FARM	5	20	[0, 0, 0]	n/a	1	1	4600	LB3	LB4	1000.0	50	230	300	FR2	1	R1022J
2032.738	1.6	2102043	WORD	n/a	wordpools/wordpool_EN.txt	JUICE	6	20	[0, 0, 0]	n/a	1	1	4600	LB3	LB4	1000.0	50	230	300	FR2	1	R1022J
2035.344	1.6	2104649	WORD	n/a	wordpools/wordpool_EN.txt	STORM	7	20	[0, 0, 0]	n/a	0	1	0	n/a	n/a	0.0	0	0	0	FR2	1	R1022J
2037.797	1.6	2107102	WORD	n/a	wordpools/wordpool_EN.txt	SHEEP	8	20	[0, 0, 0]	n/a	0	1	0	n/a	n/a	0.0	0	0	0	FR2	1	R1022J
2040.056	4.6	2109361	STIM_ON	n/a	n/a	n/a	-999	20	[0, 0, 0]	n/a	1	1	4600	LB3	LB4	1000.0	50	230	300	FR2	1	R1022J
2040.268	1.6	2109573	WORD	n/a	wordpools/wordpool_EN.txt	ICE	9	20	[0, 0, 0]	n/a	1	1	4600	LB3	LB4	1000.0	50	230	300	FR2	1	R1022J
2042.872	1.6	2112176	WORD	n/a	wordpools/wordpool_EN.txt	TRASH	10	20	[0, 0, 0]	n/a	1	1	4600	LB3	LB4	1000.0	50	230	300	FR2	1	R1022J
2045.427	1.6	2114731	WORD	n/a	wordpools/wordpool_EN.txt	CUBE	11	20	[0, 0, 0]	n/a	0	1	0	n/a	n/a	0.0	0	0	0	FR2	1	R1022J
2047.997	1.6	2117301	WORD	n/a	wordpools/wordpool_EN.txt	GRAPE	12	20	[0, 0, 0]	n/a	0	1	0	n/a	n/a	0.0	0	0	0	FR2	1	R1022J
2049.616	0.001	2118920	DISTRACT_START	n/a	n/a	n/a	-999	20	[0, 0, 0]	n/a	0	1	0	n/a	n/a	0.0	0	0	0	FR2	1	R1022J
2049.617	0.016	2118921	START	n/a	n/a	n/a	-999	20	[-999, -999, -999]	n/a	0	1	0	n/a	n/a	0.0	0	0	0	FR2	1	R1022J
2049.633	7.012	2118937	PROB	6.985	n/a	n/a	-999	20	[4, 8, 3]	15	0	1	0	n/a	n/a	0.0	0	0	0	FR2	1	R1022J
2056.645	4.207	2125949	PROB	4.18	n/a	n/a	-999	20	[2, 6, 4]	12	0	1	0	n/a	n/a	0.0	0	0	0	FR2	1	R1022J
2060.852	4.492	2130156	PROB	4.455	n/a	n/a	-999	20	[1, 7, 1]	9	0	1	0	n/a	n/a	0.0	0	0	0	FR2	1	R1022J
2065.344	3.872	2134648	PROB	3.833	n/a	n/a	-999	20	[7, 5, 4]	16	0	1	0	n/a	n/a	0.0	0	0	0	FR2	1	R1022J
2069.216	5.802	2138520	PROB	5.802	n/a	n/a	-999	20	[5, 3, 2]	10	0	1	0	n/a	n/a	0.0	0	0	0	FR2	1	R1022J
2075.018	0.008	2144321	STOP	n/a	n/a	n/a	-999	20	[-999, -999, -999]	n/a	0	1	0	n/a	n/a	0.0	0	0	0	FR2	1	R1022J
2075.026	1.103	2144329	DISTRACT_END	n/a	n/a	n/a	-999	20	[0, 0, 0]	n/a	0	1	0	n/a	n/a	0.0	0	0	0	FR2	1	R1022J
2076.129	2.577	2145432	REC_START	n/a	n/a	n/a	-999	20	[0, 0, 0]	n/a	0	1	0	n/a	n/a	0.0	0	0	0	FR2	1	R1022J
2078.706	0.969	2148009	REC_WORD	2.577	n/a	STORE	-999	20	[0, 0, 0]	n/a	0	1	0	n/a	n/a	0.0	0	0	0	FR2	1	R1022J
2079.675	5.454	2148978	REC_WORD	3.546	n/a	STORM	-999	20	[0, 0, 0]	n/a	0	1	0	n/a	n/a	0.0	0	0	0	FR2	1	R1022J
2085.129	21.015	2154432	REC_WORD	9.0	n/a	FLOOD	-999	20	[0, 0, 0]	n/a	0	1	0	n/a	n/a	0.0	0	0	0	FR2	1	R1022J
2106.144	1.704	2175446	REC_END	n/a	n/a	n/a	-999	20	[0, 0, 0]	n/a	0	1	0	n/a	n/a	0.0	0	0	0	FR2	1	R1022J
2107.848	0.0	2177150	TRIAL	n/a	n/a	n/a	-999	21	[0, 0, 0]	n/a	0	1	0	n/a	n/a	0.0	0	0	0	FR2	1	R1022J
2107.848	10.0	2177150	COUNTDOWN_START	n/a	n/a	n/a	-999	21	[0, 0, 0]	n/a	0	1	0	n/a	n/a	0.0	0	0	0	FR2	1	R1022J
2118.276	0.007	2187578	COUNTDOWN_END	n/a	n/a	n/a	-999	21	[0, 0, 0]	n/a	0	1	0	n/a	n/a	0.0	0	0	0	FR2	1	R1022J
2118.283	1.6	2187585	ORIENT	n/a	n/a	n/a	-999	21	[0, 0, 0]	n/a	0	1	0	n/a	n/a	0.0	0	0	0	FR2	1	R1022J
2120.637	4.6	2189939	STIM_ON	n/a	n/a	n/a	-999	21	[0, 0, 0]	n/a	1	1	4600	LB3	LB4	1000.0	50	230	300	FR2	1	R1022J
2120.853	1.6	2190155	WORD	n/a	wordpools/wordpool_EN.txt	BOX	1	21	[0, 0, 0]	n/a	1	1	4600	LB3	LB4	1000.0	50	230	300	FR2	1	R1022J
2123.224	1.6	2192526	WORD	n/a	wordpools/wordpool_EN.txt	DOOR	2	21	[0, 0, 0]	n/a	1	1	4600	LB3	LB4	1000.0	50	230	300	FR2	1	R1022J
2125.695	1.6	2194996	WORD	n/a	wordpools/wordpool_EN.txt	COUCH	3	21	[0, 0, 0]	n/a	0	1	0	n/a	n/a	0.0	0	0	0	FR2	1	R1022J
2128.199	1.6	2197500	WORD	n/a	wordpools/wordpool_EN.txt	SLEEVE	4	21	[0, 0, 0]	n/a	0	1	0	n/a	n/a	0.0	0	0	0	FR2	1	R1022J
2130.526	4.6	2199827	STIM_ON	n/a	n/a	n/a	-999	21	[0, 0, 0]	n/a	1	1	4600	LB3	LB4	1000.0	50	230	300	FR2	1	R1022J
2130.736	1.6	2200037	WORD	n/a	wordpools/wordpool_EN.txt	PASTE	5	21	[0, 0, 0]	n/a	1	1	4600	LB3	LB4	1000.0	50	230	300	FR2	1	R1022J
2133.157	1.6	2202458	WORD	n/a	wordpools/wordpool_EN.txt	CHALK	6	21	[0, 0, 0]	n/a	1	1	4600	LB3	LB4	1000.0	50	230	300	FR2	1	R1022J
2135.745	1.6	2205046	WORD	n/a	wordpools/wordpool_EN.txt	CAGE	7	21	[0, 0, 0]	n/a	0	1	0	n/a	n/a	0.0	0	0	0	FR2	1	R1022J
2138.149	1.6	2207450	WORD	n/a	wordpools/wordpool_EN.txt	CUP	8	21	[0, 0, 0]	n/a	0	1	0	n/a	n/a	0.0	0	0	0	FR2	1	R1022J
2140.484	4.6	2209785	STIM_ON	n/a	n/a	n/a	-999	21	[0, 0, 0]	n/a	1	1	4600	LB3	LB4	1000.0	50	230	300	FR2	1	R1022J
2140.703	1.6	2210004	WORD	n/a	wordpools/wordpool_EN.txt	LEG	9	21	[0, 0, 0]	n/a	1	1	4600	LB3	LB4	1000.0	50	230	300	FR2	1	R1022J
2143.241	1.6	2212542	WORD	n/a	wordpools/wordpool_EN.txt	CART	10	21	[0, 0, 0]	n/a	1	1	4600	LB3	LB4	1000.0	50	230	300	FR2	1	R1022J
2145.828	1.6	2215129	WORD	n/a	wordpools/wordpool_EN.txt	STOOL	11	21	[0, 0, 0]	n/a	0	1	0	n/a	n/a	0.0	0	0	0	FR2	1	R1022J
2148.35	1.6	2217651	WORD	n/a	wordpools/wordpool_EN.txt	DART	12	21	[0, 0, 0]	n/a	0	1	0	n/a	n/a	0.0	0	0	0	FR2	1	R1022J
2149.969	0.0	2219270	DISTRACT_START	n/a	n/a	n/a	-999	21	[0, 0, 0]	n/a	0	1	0	n/a	n/a	0.0	0	0	0	FR2	1	R1022J
2149.969	0.016	2219270	START	n/a	n/a	n/a	-999	21	[-999, -999, -999]	n/a	0	1	0	n/a	n/a	0.0	0	0	0	FR2	1	R1022J
2149.985	3.491	2219286	PROB	3.458	n/a	n/a	-999	21	[3, 7, 4]	14	0	1	0	n/a	n/a	0.0	0	0	0	FR2	1	R1022J
2153.476	3.204	2222776	PROB	3.166	n/a	n/a	-999	21	[7, 8, 2]	17	0	1	0	n/a	n/a	0.0	0	0	0	FR2	1	R1022J
2156.68	3.574	2225980	PROB	3.537	n/a	n/a	-999	21	[8, 4, 7]	19	0	1	0	n/a	n/a	0.0	0	0	0	FR2	1	R1022J
2160.254	6.51	2229554	PROB	6.475	n/a	n/a	-999	21	[2, 6, 6]	14	0	1	0	n/a	n/a	0.0	0	0	0	FR2	1	R1022J
2166.764	9.469	2236064	PROB	9.469	n/a	n/a	-999	21	[8, 1, 6]	15	0	1	0	n/a	n/a	0.0	0	0	0	FR2	1	R1022J
2176.233	0.013	2245533	STOP	n/a	n/a	n/a	-999	21	[-999, -999, -999]	n/a	0	1	0	n/a	n/a	0.0	0	0	0	FR2	1	R1022J
2176.246	1.12	2245546	DISTRACT_END	n/a	n/a	n/a	-999	21	[0, 0, 0]	n/a	0	1	0	n/a	n/a	0.0	0	0	0	FR2	1	R1022J
2177.366	1.408	2246666	REC_START	n/a	n/a	n/a	-999	21	[0, 0, 0]	n/a	0	1	0	n/a	n/a	0.0	0	0	0	FR2	1	R1022J
2178.774	0.751	2248074	REC_WORD	1.408	n/a	BOX	-999	21	[0, 0, 0]	n/a	0	1	0	n/a	n/a	0.0	0	0	0	FR2	1	R1022J
2179.525	1.594	2248825	REC_WORD	2.159	n/a	DOOR	-999	21	[0, 0, 0]	n/a	0	1	0	n/a	n/a	0.0	0	0	0	FR2	1	R1022J
2181.119	4.477	2250418	REC_WORD	3.753	n/a	COUCH	-999	21	[0, 0, 0]	n/a	0	1	0	n/a	n/a	0.0	0	0	0	FR2	1	R1022J
2185.596	7.662	2254895	REC_WORD	8.23	n/a	SORE	-999	21	[0, 0, 0]	n/a	0	1	0	n/a	n/a	0.0	0	0	0	FR2	1	R1022J
2193.258	5.447	2262557	REC_WORD	15.892	n/a	FLOOD	-999	21	[0, 0, 0]	n/a	0	1	0	n/a	n/a	0.0	0	0	0	FR2	1	R1022J
2198.705	8.685	2268004	REC_WORD	21.339	n/a	AIR	-999	21	[0, 0, 0]	n/a	0	1	0	n/a	n/a	0.0	0	0	0	FR2	1	R1022J
2207.39	1.645	2276689	REC_END	n/a	n/a	n/a	-999	21	[0, 0, 0]	n/a	0	1	0	n/a	n/a	0.0	0	0	0	FR2	1	R1022J
2209.035	10.0	2278333	COUNTDOWN_START	n/a	n/a	n/a	-999	22	[0, 0, 0]	n/a	0	1	0	n/a	n/a	0.0	0	0	0	FR2	1	R1022J
2209.035	10.428	2278333	TRIAL	n/a	n/a	n/a	-999	22	[0, 0, 0]	n/a	0	1	0	n/a	n/a	0.0	0	0	0	FR2	1	R1022J
2219.463	0.007	2288761	COUNTDOWN_END	n/a	n/a	n/a	-999	22	[0, 0, 0]	n/a	0	1	0	n/a	n/a	0.0	0	0	0	FR2	1	R1022J
2219.47	1.6	2288768	ORIENT	n/a	n/a	n/a	-999	22	[0, 0, 0]	n/a	0	1	0	n/a	n/a	0.0	0	0	0	FR2	1	R1022J
2221.656	4.6	2290954	STIM_ON	n/a	n/a	n/a	-999	22	[0, 0, 0]	n/a	1	1	4600	LB3	LB4	1000.0	50	230	300	FR2	1	R1022J
2221.873	1.6	2291171	WORD	n/a	wordpools/wordpool_EN.txt	ROOF	1	22	[0, 0, 0]	n/a	1	1	4600	LB3	LB4	1000.0	50	230	300	FR2	1	R1022J
2224.395	1.6	2293693	WORD	n/a	wordpools/wordpool_EN.txt	POND	2	22	[0, 0, 0]	n/a	1	1	4600	LB3	LB4	1000.0	50	230	300	FR2	1	R1022J
2226.815	1.6	2296113	WORD	n/a	wordpools/wordpool_EN.txt	RICE	3	22	[0, 0, 0]	n/a	0	1	0	n/a	n/a	0.0	0	0	0	FR2	1	R1022J
2229.37	1.6	2298668	WORD	n/a	wordpools/wordpool_EN.txt	BLUSH	4	22	[0, 0, 0]	n/a	0	1	0	n/a	n/a	0.0	0	0	0	FR2	1	R1022J
2231.603	4.6	2300901	STIM_ON	n/a	n/a	n/a	-999	22	[0, 0, 0]	n/a	1	1	4600	LB3	LB4	1000.0	50	230	300	FR2	1	R1022J
2231.823	1.6	2301121	WORD	n/a	wordpools/wordpool_EN.txt	GLASS	5	22	[0, 0, 0]	n/a	1	1	4600	LB3	LB4	1000.0	50	230	300	FR2	1	R1022J
2234.312	1.6	2303610	WORD	n/a	wordpools/wordpool_EN.txt	SNAIL	6	22	[0, 0, 0]	n/a	1	1	4600	LB3	LB4	1000.0	50	230	300	FR2	1	R1022J
2236.798	1.6	2306095	WORD	n/a	wordpools/wordpool_EN.txt	FOOD	7	22	[0, 0, 0]	n/a	0	1	0	n/a	n/a	0.0	0	0	0	FR2	1	R1022J
2239.37	1.6	2308667	WORD	n/a	wordpools/wordpool_EN.txt	HOOK	8	22	[0, 0, 0]	n/a	0	1	0	n/a	n/a	0.0	0	0	0	FR2	1	R1022J
2241.556	4.6	2310853	STIM_ON	n/a	n/a	n/a	-999	22	[0, 0, 0]	n/a	1	1	4600	LB3	LB4	1000.0	50	230	300	FR2	1	R1022J
2241.773	1.6	2311070	WORD	n/a	wordpools/wordpool_EN.txt	MILK	9	22	[0, 0, 0]	n/a	1	1	4600	LB3	LB4	1000.0	50	230	300	FR2	1	R1022J
2244.161	1.6	2313458	WORD	n/a	wordpools/wordpool_EN.txt	TOAD	10	22	[0, 0, 0]	n/a	1	1	4600	LB3	LB4	1000.0	50	230	300	FR2	1	R1022J
2246.682	1.6	2315979	WORD	n/a	wordpools/wordpool_EN.txt	JAR	11	22	[0, 0, 0]	n/a	0	1	0	n/a	n/a	0.0	0	0	0	FR2	1	R1022J
2249.253	1.6	2318550	WORD	n/a	wordpools/wordpool_EN.txt	SUN	12	22	[0, 0, 0]	n/a	0	1	0	n/a	n/a	0.0	0	0	0	FR2	1	R1022J
2250.872	0.001	2320169	DISTRACT_START	n/a	n/a	n/a	-999	22	[0, 0, 0]	n/a	0	1	0	n/a	n/a	0.0	0	0	0	FR2	1	R1022J
2250.873	0.016	2320170	START	n/a	n/a	n/a	-999	22	[-999, -999, -999]	n/a	0	1	0	n/a	n/a	0.0	0	0	0	FR2	1	R1022J
2250.889	3.839	2320186	PROB	3.816	n/a	n/a	-999	22	[2, 4, 5]	11	0	1	0	n/a	n/a	0.0	0	0	0	FR2	1	R1022J
2254.728	5.694	2324025	PROB	5.659	n/a	n/a	-999	22	[3, 6, 2]	11	0	1	0	n/a	n/a	0.0	0	0	0	FR2	1	R1022J
2260.422	6.06	2329719	PROB	6.037	n/a	n/a	-999	22	[4, 7, 6]	17	0	1	0	n/a	n/a	0.0	0	0	0	FR2	1	R1022J
2266.482	3.305	2335778	PROB	3.271	n/a	n/a	-999	22	[8, 2, 1]	11	0	1	0	n/a	n/a	0.0	0	0	0	FR2	1	R1022J
2269.787	3.728	2339083	PROB	3.728	n/a	n/a	-999	22	[3, 8, 2]	13	0	1	0	n/a	n/a	0.0	0	0	0	FR2	1	R1022J
2273.515	0.013	2342811	STOP	n/a	n/a	n/a	-999	22	[-999, -999, -999]	n/a	0	1	0	n/a	n/a	0.0	0	0	0	FR2	1	R1022J
2273.528	1.118	2342824	DISTRACT_END	n/a	n/a	n/a	-999	22	[0, 0, 0]	n/a	0	1	0	n/a	n/a	0.0	0	0	0	FR2	1	R1022J
2274.646	3.056	2343942	REC_START	n/a	n/a	n/a	-999	22	[0, 0, 0]	n/a	0	1	0	n/a	n/a	0.0	0	0	0	FR2	1	R1022J
2277.702	0.749	2346998	REC_WORD	3.056	n/a	PUSH	-999	22	[0, 0, 0]	n/a	0	1	0	n/a	n/a	0.0	0	0	0	FR2	1	R1022J
2278.451	0.762	2347747	REC_WORD	3.805	n/a	PULL	-999	22	[0, 0, 0]	n/a	0	1	0	n/a	n/a	0.0	0	0	0	FR2	1	R1022J
2279.213	21.054	2348509	REC_WORD	4.567	n/a	POOL	-999	22	[0, 0, 0]	n/a	0	1	0	n/a	n/a	0.0	0	0	0	FR2	1	R1022J
2300.267	4.393	2369562	REC_WORD	25.621	n/a	SHARE	-999	22	[0, 0, 0]	n/a	0	1	0	n/a	n/a	0.0	0	0	0	FR2	1	R1022J
2304.66	2.507	2373955	REC_END	n/a	n/a	n/a	-999	22	[0, 0, 0]	n/a	0	1	0	n/a	n/a	0.0	0	0	0	FR2	1	R1022J
2307.167	0.0	2376462	TRIAL	n/a	n/a	n/a	-999	23	[0, 0, 0]	n/a	0	1	0	n/a	n/a	0.0	0	0	0	FR2	1	R1022J
2307.167	10.0	2376462	COUNTDOWN_START	n/a	n/a	n/a	-999	23	[0, 0, 0]	n/a	0	1	0	n/a	n/a	0.0	0	0	0	FR2	1	R1022J
2317.595	0.006	2386890	COUNTDOWN_END	n/a	n/a	n/a	-999	23	[0, 0, 0]	n/a	0	1	0	n/a	n/a	0.0	0	0	0	FR2	1	R1022J
2317.601	1.6	2386896	ORIENT	n/a	n/a	n/a	-999	23	[0, 0, 0]	n/a	0	1	0	n/a	n/a	0.0	0	0	0	FR2	1	R1022J
2320.105	1.6	2389399	WORD	n/a	wordpools/wordpool_EN.txt	PIT	1	23	[0, 0, 0]	n/a	0	1	0	n/a	n/a	0.0	0	0	0	FR2	1	R1022J
2322.527	1.6	2391821	WORD	n/a	wordpools/wordpool_EN.txt	HILL	2	23	[0, 0, 0]	n/a	0	1	0	n/a	n/a	0.0	0	0	0	FR2	1	R1022J
2324.93	4.6	2394224	STIM_ON	n/a	n/a	n/a	-999	23	[0, 0, 0]	n/a	1	1	4600	LB3	LB4	1000.0	50	230	300	FR2	1	R1022J
2325.147	1.6	2394441	WORD	n/a	wordpools/wordpool_EN.txt	BROOM	3	23	[0, 0, 0]	n/a	1	1	4600	LB3	LB4	1000.0	50	230	300	FR2	1	R1022J
2327.634	1.6	2396928	WORD	n/a	wordpools/wordpool_EN.txt	ARK	4	23	[0, 0, 0]	n/a	1	1	4600	LB3	LB4	1000.0	50	230	300	FR2	1	R1022J
2330.256	1.6	2399550	WORD	n/a	wordpools/wordpool_EN.txt	STRAW	5	23	[0, 0, 0]	n/a	0	1	0	n/a	n/a	0.0	0	0	0	FR2	1	R1022J
2332.676	1.6	2401970	WORD	n/a	wordpools/wordpool_EN.txt	STONE	6	23	[0, 0, 0]	n/a	0	1	0	n/a	n/a	0.0	0	0	0	FR2	1	R1022J
2334.996	4.6	2404290	STIM_ON	n/a	n/a	n/a	-999	23	[0, 0, 0]	n/a	1	1	4600	LB3	LB4	1000.0	50	230	300	FR2	1	R1022J
2335.214	1.6	2404508	WORD	n/a	wordpools/wordpool_EN.txt	TREE	7	23	[0, 0, 0]	n/a	1	1	4600	LB3	LB4	1000.0	50	230	300	FR2	1	R1022J
2337.703	1.6	2406997	WORD	n/a	wordpools/wordpool_EN.txt	SNOW	8	23	[0, 0, 0]	n/a	1	1	4600	LB3	LB4	1000.0	50	230	300	FR2	1	R1022J
2340.223	1.6	2409517	WORD	n/a	wordpools/wordpool_EN.txt	OAK	9	23	[0, 0, 0]	n/a	0	1	0	n/a	n/a	0.0	0	0	0	FR2	1	R1022J
2342.777	1.6	2412071	WORD	n/a	wordpools/wordpool_EN.txt	FACE	10	23	[0, 0, 0]	n/a	0	1	0	n/a	n/a	0.0	0	0	0	FR2	1	R1022J
2345.186	4.6	2414480	STIM_ON	n/a	n/a	n/a	-999	23	[0, 0, 0]	n/a	1	1	4600	LB3	LB4	1000.0	50	230	300	FR2	1	R1022J
2345.399	1.6	2414693	WORD	n/a	wordpools/wordpool_EN.txt	NEST	11	23	[0, 0, 0]	n/a	1	1	4600	LB3	LB4	1000.0	50	230	300	FR2	1	R1022J
2347.868	1.6	2417161	WORD	n/a	wordpools/wordpool_EN.txt	LAWN	12	23	[0, 0, 0]	n/a	1	1	4600	LB3	LB4	1000.0	50	230	300	FR2	1	R1022J
2349.472	0.001	2418765	DISTRACT_START	n/a	n/a	n/a	-999	23	[0, 0, 0]	n/a	1	1	4600	LB3	LB4	1000.0	50	230	300	FR2	1	R1022J
2349.473	0.016	2418766	START	n/a	n/a	n/a	-999	23	[-999, -999, -999]	n/a	0	1	0	n/a	n/a	0.0	0	0	0	FR2	1	R1022J
2349.489	7.012	2418782	PROB	6.985	n/a	n/a	-999	23	[6, 8, 8]	22	0	1	0	n/a	n/a	0.0	0	0	0	FR2	1	R1022J
2356.501	5.391	2425794	PROB	5.356	n/a	n/a	-999	23	[4, 3, 6]	13	0	1	0	n/a	n/a	0.0	0	0	0	FR2	1	R1022J
2361.892	4.808	2431185	PROB	4.774	n/a	n/a	-999	23	[4, 1, 6]	11	0	1	0	n/a	n/a	0.0	0	0	0	FR2	1	R1022J
2366.7	6.614	2435993	PROB	6.614	n/a	n/a	-999	23	[3, 6, 9]	18	0	1	0	n/a	n/a	0.0	0	0	0	FR2	1	R1022J
2373.314	0.015	2442607	STOP	n/a	n/a	n/a	-999	23	[-999, -999, -999]	n/a	0	1	0	n/a	n/a	0.0	0	0	0	FR2	1	R1022J
2373.329	1.102	2442622	DISTRACT_END	n/a	n/a	n/a	-999	23	[0, 0, 0]	n/a	0	1	0	n/a	n/a	0.0	0	0	0	FR2	1	R1022J
2374.431	3.59	2443724	REC_START	n/a	n/a	n/a	-999	23	[0, 0, 0]	n/a	0	1	0	n/a	n/a	0.0	0	0	0	FR2	1	R1022J
2378.021	0.676	2447313	REC_WORD	3.59	n/a	BROOM	-999	23	[0, 0, 0]	n/a	0	1	0	n/a	n/a	0.0	0	0	0	FR2	1	R1022J
2378.697	0.749	2447989	REC_WORD	4.266	n/a	PULSE	-999	23	[0, 0, 0]	n/a	0	1	0	n/a	n/a	0.0	0	0	0	FR2	1	R1022J
2379.446	16.46	2448738	REC_WORD	5.015	n/a	STORE	-999	23	[0, 0, 0]	n/a	0	1	0	n/a	n/a	0.0	0	0	0	FR2	1	R1022J
2395.906	8.549	2465198	REC_WORD_VV	21.475	n/a	<>	-999	23	[0, 0, 0]	n/a	0	1	0	n/a	n/a	0.0	0	0	0	FR2	1	R1022J
2404.455	1.695	2473746	REC_END	n/a	n/a	n/a	-999	23	[0, 0, 0]	n/a	0	1	0	n/a	n/a	0.0	0	0	0	FR2	1	R1022J
2406.15	10.0	2475441	COUNTDOWN_START	n/a	n/a	n/a	-999	24	[0, 0, 0]	n/a	0	1	0	n/a	n/a	0.0	0	0	0	FR2	1	R1022J
2406.15	10.428	2475441	TRIAL	n/a	n/a	n/a	-999	24	[0, 0, 0]	n/a	0	1	0	n/a	n/a	0.0	0	0	0	FR2	1	R1022J
2416.578	0.006	2485869	COUNTDOWN_END	n/a	n/a	n/a	-999	24	[0, 0, 0]	n/a	0	1	0	n/a	n/a	0.0	0	0	0	FR2	1	R1022J
2416.584	1.6	2485875	ORIENT	n/a	n/a	n/a	-999	24	[0, 0, 0]	n/a	0	1	0	n/a	n/a	0.0	0	0	0	FR2	1	R1022J
2418.793	4.6	2488084	STIM_ON	n/a	n/a	n/a	-999	24	[0, 0, 0]	n/a	1	1	4600	LB3	LB4	1000.0	50	230	300	FR2	1	R1022J
2419.005	1.6	2488296	WORD	n/a	wordpools/wordpool_EN.txt	PHONE	1	24	[0, 0, 0]	n/a	1	1	4600	LB3	LB4	1000.0	50	230	300	FR2	1	R1022J
2421.543	1.6	2490834	WORD	n/a	wordpools/wordpool_EN.txt	TOAST	2	24	[0, 0, 0]	n/a	1	1	4600	LB3	LB4	1000.0	50	230	300	FR2	1	R1022J
2423.98	1.6	2493271	WORD	n/a	wordpools/wordpool_EN.txt	TANK	3	24	[0, 0, 0]	n/a	0	1	0	n/a	n/a	0.0	0	0	0	FR2	1	R1022J
2426.403	1.6	2495694	WORD	n/a	wordpools/wordpool_EN.txt	PEA	4	24	[0, 0, 0]	n/a	0	1	0	n/a	n/a	0.0	0	0	0	FR2	1	R1022J
2428.809	4.6	2498100	STIM_ON	n/a	n/a	n/a	-999	24	[0, 0, 0]	n/a	1	1	4600	LB3	LB4	1000.0	50	230	300	FR2	1	R1022J
2429.022	1.6	2498313	WORD	n/a	wordpools/wordpool_EN.txt	CHAIR	5	24	[0, 0, 0]	n/a	1	1	4600	LB3	LB4	1000.0	50	230	300	FR2	1	R1022J
2431.559	1.6	2500849	WORD	n/a	wordpools/wordpool_EN.txt	BEAN	6	24	[0, 0, 0]	n/a	1	1	4600	LB3	LB4	1000.0	50	230	300	FR2	1	R1022J
2434.164	1.6	2503454	WORD	n/a	wordpools/wordpool_EN.txt	POOL	7	24	[0, 0, 0]	n/a	0	1	0	n/a	n/a	0.0	0	0	0	FR2	1	R1022J
2436.769	1.6	2506059	WORD	n/a	wordpools/wordpool_EN.txt	YARD	8	24	[0, 0, 0]	n/a	0	1	0	n/a	n/a	0.0	0	0	0	FR2	1	R1022J
2438.954	4.6	2508244	STIM_ON	n/a	n/a	n/a	-999	24	[0, 0, 0]	n/a	1	1	4600	LB3	LB4	1000.0	50	230	300	FR2	1	R1022J
2439.172	1.6	2508462	WORD	n/a	wordpools/wordpool_EN.txt	MUG	9	24	[0, 0, 0]	n/a	1	1	4600	LB3	LB4	1000.0	50	230	300	FR2	1	R1022J
2441.693	1.6	2510983	WORD	n/a	wordpools/wordpool_EN.txt	MAIL	10	24	[0, 0, 0]	n/a	1	1	4600	LB3	LB4	1000.0	50	230	300	FR2	1	R1022J
2444.08	1.6	2513370	WORD	n/a	wordpools/wordpool_EN.txt	FAN	11	24	[0, 0, 0]	n/a	0	1	0	n/a	n/a	0.0	0	0	0	FR2	1	R1022J
2446.584	1.6	2515874	WORD	n/a	wordpools/wordpool_EN.txt	DIME	12	24	[0, 0, 0]	n/a	0	1	0	n/a	n/a	0.0	0	0	0	FR2	1	R1022J
2448.204	0.001	2517494	DISTRACT_START	n/a	n/a	n/a	-999	24	[0, 0, 0]	n/a	0	1	0	n/a	n/a	0.0	0	0	0	FR2	1	R1022J
2448.205	0.016	2517495	START	n/a	n/a	n/a	-999	24	[-999, -999, -999]	n/a	0	1	0	n/a	n/a	0.0	0	0	0	FR2	1	R1022J
2448.221	4.057	2517511	PROB	4.028	n/a	n/a	-999	24	[7, 2, 4]	13	0	1	0	n/a	n/a	0.0	0	0	0	FR2	1	R1022J
2452.278	4.507	2521568	PROB	4.475	n/a	n/a	-999	24	[7, 2, 9]	18	0	1	0	n/a	n/a	0.0	0	0	0	FR2	1	R1022J
2456.785	6.027	2526075	PROB	5.992	n/a	n/a	-999	24	[5, 1, 8]	14	0	1	0	n/a	n/a	0.0	0	0	0	FR2	1	R1022J
2462.812	3.222	2532101	PROB	3.189	n/a	n/a	-999	24	[7, 3, 5]	15	0	1	0	n/a	n/a	0.0	0	0	0	FR2	1	R1022J
2466.034	7.711	2535323	PROB	7.711	n/a	n/a	-999	24	[1, 7, 9]	17	0	1	0	n/a	n/a	0.0	0	0	0	FR2	1	R1022J
2473.745	0.019	2543034	STOP	n/a	n/a	n/a	-999	24	[-999, -999, -999]	n/a	0	1	0	n/a	n/a	0.0	0	0	0	FR2	1	R1022J
2473.764	1.203	2543053	DISTRACT_END	n/a	n/a	n/a	-999	24	[0, 0, 0]	n/a	0	1	0	n/a	n/a	0.0	0	0	0	FR2	1	R1022J
2474.967	4.504	2544256	REC_START	n/a	n/a	n/a	-999	24	[0, 0, 0]	n/a	0	1	0	n/a	n/a	0.0	0	0	0	FR2	1	R1022J
2479.471	0.883	2548760	REC_WORD	4.504	n/a	PUSH	-999	24	[0, 0, 0]	n/a	0	1	0	n/a	n/a	0.0	0	0	0	FR2	1	R1022J
2480.354	4.352	2549643	REC_WORD	5.387	n/a	BEAN	-999	24	[0, 0, 0]	n/a	0	1	0	n/a	n/a	0.0	0	0	0	FR2	1	R1022J
2484.706	9.599	2553995	REC_WORD	9.739	n/a	BAR	-999	24	[0, 0, 0]	n/a	0	1	0	n/a	n/a	0.0	0	0	0	FR2	1	R1022J
2494.305	7.082	2563593	REC_WORD	19.338	n/a	WAR	-999	24	[0, 0, 0]	n/a	0	1	0	n/a	n/a	0.0	0	0	0	FR2	1	R1022J
2501.387	3.594	2570675	REC_WORD	26.42	n/a	WAGON	-999	24	[0, 0, 0]	n/a	0	1	0	n/a	n/a	0.0	0	0	0	FR2	1	R1022J
2504.981	1.839	2574269	REC_END	n/a	n/a	n/a	-999	24	[0, 0, 0]	n/a	0	1	0	n/a	n/a	0.0	0	0	0	FR2	1	R1022J
2506.82	0.0	2576108	TRIAL	n/a	n/a	n/a	-999	25	[0, 0, 0]	n/a	0	1	0	n/a	n/a	0.0	0	0	0	FR2	1	R1022J
2506.82	10.0	2576108	COUNTDOWN_START	n/a	n/a	n/a	-999	25	[0, 0, 0]	n/a	0	1	0	n/a	n/a	0.0	0	0	0	FR2	1	R1022J
2517.248	0.006	2586535	COUNTDOWN_END	n/a	n/a	n/a	-999	25	[0, 0, 0]	n/a	0	1	0	n/a	n/a	0.0	0	0	0	FR2	1	R1022J
2517.254	1.6	2586541	ORIENT	n/a	n/a	n/a	-999	25	[0, 0, 0]	n/a	0	1	0	n/a	n/a	0.0	0	0	0	FR2	1	R1022J
2519.858	1.6	2589145	WORD	n/a	wordpools/wordpool_EN.txt	CASH	1	25	[0, 0, 0]	n/a	0	1	0	n/a	n/a	0.0	0	0	0	FR2	1	R1022J
2522.297	1.6	2591584	WORD	n/a	wordpools/wordpool_EN.txt	TOOTH	2	25	[0, 0, 0]	n/a	0	1	0	n/a	n/a	0.0	0	0	0	FR2	1	R1022J
2524.638	4.6	2593925	STIM_ON	n/a	n/a	n/a	-999	25	[0, 0, 0]	n/a	1	1	4600	LB3	LB4	1000.0	50	230	300	FR2	1	R1022J
2524.85	1.6	2594137	WORD	n/a	wordpools/wordpool_EN.txt	SPONGE	3	25	[0, 0, 0]	n/a	1	1	4600	LB3	LB4	1000.0	50	230	300	FR2	1	R1022J
2527.305	1.6	2596592	WORD	n/a	wordpools/wordpool_EN.txt	WORLD	4	25	[0, 0, 0]	n/a	1	1	4600	LB3	LB4	1000.0	50	230	300	FR2	1	R1022J
2529.758	1.6	2599045	WORD	n/a	wordpools/wordpool_EN.txt	SEED	5	25	[0, 0, 0]	n/a	0	1	0	n/a	n/a	0.0	0	0	0	FR2	1	R1022J
2532.195	1.6	2601482	WORD	n/a	wordpools/wordpool_EN.txt	BRUSH	6	25	[0, 0, 0]	n/a	0	1	0	n/a	n/a	0.0	0	0	0	FR2	1	R1022J
2534.532	4.6	2603819	STIM_ON	n/a	n/a	n/a	-999	25	[0, 0, 0]	n/a	1	1	4600	LB3	LB4	1000.0	50	230	300	FR2	1	R1022J
2534.75	1.6	2604037	WORD	n/a	wordpools/wordpool_EN.txt	BANK	7	25	[0, 0, 0]	n/a	1	1	4600	LB3	LB4	1000.0	50	230	300	FR2	1	R1022J
2537.338	1.6	2606625	WORD	n/a	wordpools/wordpool_EN.txt	ANT	8	25	[0, 0, 0]	n/a	1	1	4600	LB3	LB4	1000.0	50	230	300	FR2	1	R1022J
2539.858	1.6	2609145	WORD	n/a	wordpools/wordpool_EN.txt	LEAF	9	25	[0, 0, 0]	n/a	0	1	0	n/a	n/a	0.0	0	0	0	FR2	1	R1022J
2542.447	1.6	2611733	WORD	n/a	wordpools/wordpool_EN.txt	BRANCH	10	25	[0, 0, 0]	n/a	0	1	0	n/a	n/a	0.0	0	0	0	FR2	1	R1022J
2544.754	4.6	2614040	STIM_ON	n/a	n/a	n/a	-999	25	[0, 0, 0]	n/a	1	1	4600	LB3	LB4	1000.0	50	230	300	FR2	1	R1022J
2544.967	1.6	2614253	WORD	n/a	wordpools/wordpool_EN.txt	CORD	11	25	[0, 0, 0]	n/a	1	1	4600	LB3	LB4	1000.0	50	230	300	FR2	1	R1022J
2547.554	1.6	2616840	WORD	n/a	wordpools/wordpool_EN.txt	STEM	12	25	[0, 0, 0]	n/a	1	1	4600	LB3	LB4	1000.0	50	230	300	FR2	1	R1022J
2549.174	0.001	2618460	DISTRACT_START	n/a	n/a	n/a	-999	25	[0, 0, 0]	n/a	1	1	4600	LB3	LB4	1000.0	50	230	300	FR2	1	R1022J
2549.175	0.015	2618461	START	n/a	n/a	n/a	-999	25	[-999, -999, -999]	n/a	0	1	0	n/a	n/a	0.0	0	0	0	FR2	1	R1022J
2549.19	4.209	2618476	PROB	4.173	n/a	n/a	-999	25	[1, 5, 4]	10	0	1	0	n/a	n/a	0.0	0	0	0	FR2	1	R1022J
2553.399	3.805	2622685	PROB	3.778	n/a	n/a	-999	25	[9, 8, 1]	18	0	1	0	n/a	n/a	0.0	0	0	0	FR2	1	R1022J
2557.204	7.746	2626490	PROB	7.717	n/a	n/a	-999	25	[7, 7, 8]	22	0	1	0	n/a	n/a	0.0	0	0	0	FR2	1	R1022J
2564.95	2.889	2634236	PROB	2.859	n/a	n/a	-999	25	[5, 9, 1]	15	0	1	0	n/a	n/a	0.0	0	0	0	FR2	1	R1022J
2567.839	2.874	2637125	PROB	2.874	n/a	n/a	-999	25	[3, 2, 5]	10	0	1	0	n/a	n/a	0.0	0	0	0	FR2	1	R1022J
2570.713	0.014	2639998	STOP	n/a	n/a	n/a	-999	25	[-999, -999, -999]	n/a	0	1	0	n/a	n/a	0.0	0	0	0	FR2	1	R1022J
2570.727	1.135	2640012	DISTRACT_END	n/a	n/a	n/a	-999	25	[0, 0, 0]	n/a	0	1	0	n/a	n/a	0.0	0	0	0	FR2	1	R1022J
2571.862	1.376	2641147	REC_START	n/a	n/a	n/a	-999	25	[0, 0, 0]	n/a	0	1	0	n/a	n/a	0.0	0	0	0	FR2	1	R1022J
2573.238	0.686	2642523	REC_WORD	1.376	n/a	BRANCH	-999	25	[0, 0, 0]	n/a	0	1	0	n/a	n/a	0.0	0	0	0	FR2	1	R1022J
2573.924	0.923	2643209	REC_WORD	2.062	n/a	LEAF	-999	25	[0, 0, 0]	n/a	0	1	0	n/a	n/a	0.0	0	0	0	FR2	1	R1022J
2574.847	1.181	2644132	REC_WORD	2.985	n/a	SEED	-999	25	[0, 0, 0]	n/a	0	1	0	n/a	n/a	0.0	0	0	0	FR2	1	R1022J
2576.028	6.634	2645313	REC_WORD	4.166	n/a	ANT	-999	25	[0, 0, 0]	n/a	0	1	0	n/a	n/a	0.0	0	0	0	FR2	1	R1022J
2582.662	19.215	2651947	REC_WORD	10.8	n/a	PUSH	-999	25	[0, 0, 0]	n/a	0	1	0	n/a	n/a	0.0	0	0	0	FR2	1	R1022J
2601.877	9.403	2671161	REC_END	n/a	n/a	n/a	-999	25	[0, 0, 0]	n/a	0	1	0	n/a	n/a	0.0	0	0	0	FR2	1	R1022J
2611.28	0.0	2680564	SESS_END	n/a	n/a	n/a	-999	25	[0, 0, 0]	n/a	0	1	0	n/a	n/a	0.0	0	0	0	FR2	1	R1022J
