onset	duration	sample	trial_type	response_time	stim_file	item_name	serialpos	recalled	list	test	answer	stimulation	stim_list	stim_duration	anode_label	cathode_label	amplitude	pulse_freq	n_pulses	pulse_width	experiment	session	subject
0.0	24.086	143363	SESS_START	n/a	n/a	n/a	-999	0	-999	[0, 0, 0]	n/a	0	0	0	n/a	n/a	0.0	0	0	0	FR2	2	R1002P
24.086	10.0	155405	COUNTDOWN_START	n/a	n/a	n/a	-999	0	-999	[0, 0, 0]	n/a	0	0	0	n/a	n/a	0.0	0	0	0	FR2	2	R1002P
34.514	3.675	160619	COUNTDOWN_END	n/a	n/a	n/a	-999	0	-999	[0, 0, 0]	n/a	0	0	0	n/a	n/a	0.0	0	0	0	FR2	2	R1002P
38.189	1.6	162457	PRACTICE_WORD	n/a	n/a	CAMEL	1	0	-1	[0, 0, 0]	n/a	0	0	0	n/a	n/a	0.0	0	0	0	FR2	2	R1002P
40.607	1.6	163665	PRACTICE_WORD	n/a	n/a	WATCH	2	0	-1	[0, 0, 0]	n/a	0	0	0	n/a	n/a	0.0	0	0	0	FR2	2	R1002P
43.073	1.6	164898	PRACTICE_WORD	n/a	n/a	TONGUE	3	0	-1	[0, 0, 0]	n/a	0	0	0	n/a	n/a	0.0	0	0	0	FR2	2	R1002P
45.458	1.6	166091	PRACTICE_WORD	n/a	n/a	CHEST	4	0	-1	[0, 0, 0]	n/a	0	0	0	n/a	n/a	0.0	0	0	0	FR2	2	R1002P
48.007	1.6	167365	PRACTICE_WORD	n/a	n/a	RHINO	5	0	-1	[0, 0, 0]	n/a	0	0	0	n/a	n/a	0.0	0	0	0	FR2	2	R1002P
50.609	1.6	168666	PRACTICE_WORD	n/a	n/a	RING	6	0	-1	[0, 0, 0]	n/a	0	0	0	n/a	n/a	0.0	0	0	0	FR2	2	R1002P
53.142	1.6	169933	PRACTICE_WORD	n/a	n/a	WAGON	7	0	-1	[0, 0, 0]	n/a	0	0	0	n/a	n/a	0.0	0	0	0	FR2	2	R1002P
55.759	1.6	171241	PRACTICE_WORD	n/a	n/a	ATTIC	8	0	-1	[0, 0, 0]	n/a	0	0	0	n/a	n/a	0.0	0	0	0	FR2	2	R1002P
58.276	1.6	172499	PRACTICE_WORD	n/a	n/a	FLOOD	9	0	-1	[0, 0, 0]	n/a	0	0	0	n/a	n/a	0.0	0	0	0	FR2	2	R1002P
60.793	1.6	173758	PRACTICE_WORD	n/a	n/a	COTTON	10	0	-1	[0, 0, 0]	n/a	0	0	0	n/a	n/a	0.0	0	0	0	FR2	2	R1002P
63.26	1.6	174991	PRACTICE_WORD	n/a	n/a	BEAM	11	0	-1	[0, 0, 0]	n/a	0	0	0	n/a	n/a	0.0	0	0	0	FR2	2	R1002P
65.777	1.6	176250	PRACTICE_WORD	n/a	n/a	IRON	12	0	-1	[0, 0, 0]	n/a	0	0	0	n/a	n/a	0.0	0	0	0	FR2	2	R1002P
67.395	0.001	177059	PRACTICE_DISTRACT_START	n/a	n/a	n/a	-999	0	-1	[0, 0, 0]	n/a	0	0	0	n/a	n/a	0.0	0	0	0	FR2	2	R1002P
67.396	0.016	177059	START	n/a	n/a	n/a	-999	0	-1	[-999, -999, -999]	n/a	0	0	0	n/a	n/a	0.0	0	0	0	FR2	2	R1002P
67.412	3.984	177067	PROB	3.963	n/a	n/a	-999	0	-1	[6, 9, 2]	17	0	0	0	n/a	n/a	0.0	0	0	0	FR2	2	R1002P
71.396	4.217	179059	PROB	4.186	n/a	n/a	-999	0	-1	[5, 9, 6]	20	0	0	0	n/a	n/a	0.0	0	0	0	FR2	2	R1002P
75.613	3.45	181167	PROB	3.417	n/a	n/a	-999	0	-1	[9, 7, 1]	17	0	0	0	n/a	n/a	0.0	0	0	0	FR2	2	R1002P
79.063	3.468	182892	PROB	3.448	n/a	n/a	-999	0	-1	[5, 3, 7]	15	0	0	0	n/a	n/a	0.0	0	0	0	FR2	2	R1002P
82.531	4.851	184626	PROB	4.819	n/a	n/a	-999	0	-1	[8, 4, 5]	17	0	0	0	n/a	n/a	0.0	0	0	0	FR2	2	R1002P
87.382	3.632	187052	PROB	3.632	n/a	n/a	-999	0	-1	[6, 3, 9]	18	0	0	0	n/a	n/a	0.0	0	0	0	FR2	2	R1002P
91.014	0.018	188868	STOP	n/a	n/a	n/a	-999	0	-1	[-999, -999, -999]	n/a	0	0	0	n/a	n/a	0.0	0	0	0	FR2	2	R1002P
91.032	0.586	188877	PRACTICE_DISTRACT_END	n/a	n/a	n/a	-999	0	-1	[0, 0, 0]	n/a	0	0	0	n/a	n/a	0.0	0	0	0	FR2	2	R1002P
91.618	30.514	189170	PRACTICE_REC_START	n/a	n/a	n/a	-999	0	-1	[0, 0, 0]	n/a	0	0	0	n/a	n/a	0.0	0	0	0	FR2	2	R1002P
122.132	13.376	204426	PRACTICE_REC_END	n/a	n/a	n/a	-999	0	-1	[0, 0, 0]	n/a	0	0	0	n/a	n/a	0.0	0	0	0	FR2	2	R1002P
135.508	0.0	211113	TRIAL	n/a	n/a	n/a	-999	0	1	[0, 0, 0]	n/a	0	1	0	n/a	n/a	0.0	0	0	0	FR2	2	R1002P
135.508	10.0	211113	COUNTDOWN_START	n/a	n/a	n/a	-999	0	1	[0, 0, 0]	n/a	0	1	0	n/a	n/a	0.0	0	0	0	FR2	2	R1002P
145.936	0.006	216327	COUNTDOWN_END	n/a	n/a	n/a	-999	0	1	[0, 0, 0]	n/a	0	1	0	n/a	n/a	0.0	0	0	0	FR2	2	R1002P
145.942	1.6	216330	ORIENT	n/a	n/a	n/a	-999	0	1	[0, 0, 0]	n/a	0	1	0	n/a	n/a	0.0	0	0	0	FR2	2	R1002P
148.345	4.6	217531	STIM_ON	n/a	n/a	n/a	-999	0	1	[0, 0, 0]	n/a	1	1	4600	LDA3	LDA4	1500.0	50	230	300	FR2	2	R1002P
148.56	1.6	217639	WORD	n/a	wordpools/wordpool_EN.txt	SINK	1	1	1	[0, 0, 0]	n/a	1	1	4600	LDA3	LDA4	1500.0	50	230	300	FR2	2	R1002P
151.043	1.6	218880	WORD	n/a	wordpools/wordpool_EN.txt	PIE	2	1	1	[0, 0, 0]	n/a	1	1	4600	LDA3	LDA4	1500.0	50	230	300	FR2	2	R1002P
153.611	1.6	220164	WORD	n/a	wordpools/wordpool_EN.txt	BOARD	3	1	1	[0, 0, 0]	n/a	0	1	0	n/a	n/a	0.0	0	0	0	FR2	2	R1002P
156.128	1.6	221423	WORD	n/a	wordpools/wordpool_EN.txt	SOCK	4	0	1	[0, 0, 0]	n/a	0	1	0	n/a	n/a	0.0	0	0	0	FR2	2	R1002P
158.428	4.6	222573	STIM_ON	n/a	n/a	n/a	-999	0	1	[0, 0, 0]	n/a	1	1	4600	LDA3	LDA4	1500.0	50	230	300	FR2	2	R1002P
158.645	1.6	222681	WORD	n/a	wordpools/wordpool_EN.txt	SPOON	5	0	1	[0, 0, 0]	n/a	1	1	4600	LDA3	LDA4	1500.0	50	230	300	FR2	2	R1002P
161.162	1.6	223940	WORD	n/a	wordpools/wordpool_EN.txt	STOVE	6	1	1	[0, 0, 0]	n/a	1	1	4600	LDA3	LDA4	1500.0	50	230	300	FR2	2	R1002P
163.762	1.6	225240	WORD	n/a	wordpools/wordpool_EN.txt	SLUSH	7	0	1	[0, 0, 0]	n/a	0	1	0	n/a	n/a	0.0	0	0	0	FR2	2	R1002P
166.296	1.6	226506	WORD	n/a	wordpools/wordpool_EN.txt	WOOD	8	0	1	[0, 0, 0]	n/a	0	1	0	n/a	n/a	0.0	0	0	0	FR2	2	R1002P
168.536	4.6	227626	STIM_ON	n/a	n/a	n/a	-999	0	1	[0, 0, 0]	n/a	1	1	4600	LDA3	LDA4	1500.0	50	230	300	FR2	2	R1002P
168.747	1.6	227732	WORD	n/a	wordpools/wordpool_EN.txt	THUMB	9	0	1	[0, 0, 0]	n/a	1	1	4600	LDA3	LDA4	1500.0	50	230	300	FR2	2	R1002P
171.147	1.6	228932	WORD	n/a	wordpools/wordpool_EN.txt	SUIT	10	1	1	[0, 0, 0]	n/a	1	1	4600	LDA3	LDA4	1500.0	50	230	300	FR2	2	R1002P
173.748	1.6	230232	WORD	n/a	wordpools/wordpool_EN.txt	SHIP	11	0	1	[0, 0, 0]	n/a	0	1	0	n/a	n/a	0.0	0	0	0	FR2	2	R1002P
176.148	1.6	231432	WORD	n/a	wordpools/wordpool_EN.txt	SHRIMP	12	0	1	[0, 0, 0]	n/a	0	1	0	n/a	n/a	0.0	0	0	0	FR2	2	R1002P
177.765	0.001	232241	DISTRACT_START	n/a	n/a	n/a	-999	0	1	[0, 0, 0]	n/a	0	1	0	n/a	n/a	0.0	0	0	0	FR2	2	R1002P
177.766	0.016	232241	START	n/a	n/a	n/a	-999	0	1	[-999, -999, -999]	n/a	0	1	0	n/a	n/a	0.0	0	0	0	FR2	2	R1002P
177.782	3.084	232249	PROB	3.063	n/a	n/a	-999	0	1	[2, 3, 7]	12	0	1	0	n/a	n/a	0.0	0	0	0	FR2	2	R1002P
180.866	3.984	233791	PROB	3.948	n/a	n/a	-999	0	1	[5, 4, 6]	15	0	1	0	n/a	n/a	0.0	0	0	0	FR2	2	R1002P
184.85	3.9	235783	PROB	3.875	n/a	n/a	-999	0	1	[3, 4, 9]	16	0	1	0	n/a	n/a	0.0	0	0	0	FR2	2	R1002P
188.75	4.201	237733	PROB	4.167	n/a	n/a	-999	0	1	[9, 4, 6]	19	0	1	0	n/a	n/a	0.0	0	0	0	FR2	2	R1002P
192.951	3.318	239833	PROB	3.295	n/a	n/a	-999	0	1	[4, 3, 6]	13	0	1	0	n/a	n/a	0.0	0	0	0	FR2	2	R1002P
196.269	3.921	241492	PROB	3.921	n/a	n/a	-999	0	1	[8, 4, 8]	22	0	1	0	n/a	n/a	0.0	0	0	0	FR2	2	R1002P
200.19	0.013	243453	STOP	n/a	n/a	n/a	-999	0	1	[-999, -999, -999]	n/a	0	1	0	n/a	n/a	0.0	0	0	0	FR2	2	R1002P
200.203	1.185	243459	DISTRACT_END	n/a	n/a	n/a	-999	0	1	[0, 0, 0]	n/a	0	1	0	n/a	n/a	0.0	0	0	0	FR2	2	R1002P
201.388	1.787	244052	REC_START	n/a	n/a	n/a	-999	0	1	[0, 0, 0]	n/a	0	1	0	n/a	n/a	0.0	0	0	0	FR2	2	R1002P
203.175	1.132	244945	REC_WORD	1.787	n/a	SINK	1	1	1	[0, 0, 0]	n/a	0	1	0	n/a	n/a	0.0	0	0	0	FR2	2	R1002P
204.307	2.024	245511	REC_WORD	2.919	n/a	STOVE	6	1	1	[0, 0, 0]	n/a	0	1	0	n/a	n/a	0.0	0	0	0	FR2	2	R1002P
206.331	2.213	246523	REC_WORD	4.943	n/a	PIE	2	1	1	[0, 0, 0]	n/a	0	1	0	n/a	n/a	0.0	0	0	0	FR2	2	R1002P
208.544	3.235	247629	REC_WORD	7.156	n/a	BOARD	3	1	1	[0, 0, 0]	n/a	0	1	0	n/a	n/a	0.0	0	0	0	FR2	2	R1002P
211.779	10.35	249247	REC_WORD	10.391	n/a	SUIT	10	1	1	[0, 0, 0]	n/a	0	1	0	n/a	n/a	0.0	0	0	0	FR2	2	R1002P
222.129	9.269	254421	REC_WORD	20.741	n/a	MAIL	-999	0	1	[0, 0, 0]	n/a	0	1	0	n/a	n/a	0.0	0	0	0	FR2	2	R1002P
231.398	1.811	259056	REC_END	n/a	n/a	n/a	-999	0	1	[0, 0, 0]	n/a	0	1	0	n/a	n/a	0.0	0	0	0	FR2	2	R1002P
233.209	0.0	259961	TRIAL	n/a	n/a	n/a	-999	0	2	[0, 0, 0]	n/a	0	1	0	n/a	n/a	0.0	0	0	0	FR2	2	R1002P
233.209	10.0	259961	COUNTDOWN_START	n/a	n/a	n/a	-999	0	2	[0, 0, 0]	n/a	0	1	0	n/a	n/a	0.0	0	0	0	FR2	2	R1002P
243.637	0.007	265175	COUNTDOWN_END	n/a	n/a	n/a	-999	0	2	[0, 0, 0]	n/a	0	1	0	n/a	n/a	0.0	0	0	0	FR2	2	R1002P
243.644	1.6	265178	ORIENT	n/a	n/a	n/a	-999	0	2	[0, 0, 0]	n/a	0	1	0	n/a	n/a	0.0	0	0	0	FR2	2	R1002P
246.061	1.6	266387	WORD	n/a	wordpools/wordpool_EN.txt	BADGE	1	1	2	[0, 0, 0]	n/a	0	1	0	n/a	n/a	0.0	0	0	0	FR2	2	R1002P
248.463	1.6	267588	WORD	n/a	wordpools/wordpool_EN.txt	HEART	2	0	2	[0, 0, 0]	n/a	0	1	0	n/a	n/a	0.0	0	0	0	FR2	2	R1002P
250.832	4.6	268772	STIM_ON	n/a	n/a	n/a	-999	0	2	[0, 0, 0]	n/a	1	1	4600	LDA3	LDA4	1500.0	50	230	300	FR2	2	R1002P
251.046	1.6	268879	WORD	n/a	wordpools/wordpool_EN.txt	SHEET	3	0	2	[0, 0, 0]	n/a	1	1	4600	LDA3	LDA4	1500.0	50	230	300	FR2	2	R1002P
253.514	1.6	270113	WORD	n/a	wordpools/wordpool_EN.txt	WEED	4	0	2	[0, 0, 0]	n/a	1	1	4600	LDA3	LDA4	1500.0	50	230	300	FR2	2	R1002P
256.03	1.6	271371	WORD	n/a	wordpools/wordpool_EN.txt	JUICE	5	1	2	[0, 0, 0]	n/a	0	1	0	n/a	n/a	0.0	0	0	0	FR2	2	R1002P
258.565	1.6	272638	WORD	n/a	wordpools/wordpool_EN.txt	SCHOOL	6	1	2	[0, 0, 0]	n/a	0	1	0	n/a	n/a	0.0	0	0	0	FR2	2	R1002P
260.888	4.6	273800	STIM_ON	n/a	n/a	n/a	-999	0	2	[0, 0, 0]	n/a	1	1	4600	LDA3	LDA4	1500.0	50	230	300	FR2	2	R1002P
261.097	1.6	273904	WORD	n/a	wordpools/wordpool_EN.txt	JAIL	7	0	2	[0, 0, 0]	n/a	1	1	4600	LDA3	LDA4	1500.0	50	230	300	FR2	2	R1002P
263.632	1.6	275172	WORD	n/a	wordpools/wordpool_EN.txt	CROW	8	0	2	[0, 0, 0]	n/a	1	1	4600	LDA3	LDA4	1500.0	50	230	300	FR2	2	R1002P
266.148	1.6	276430	WORD	n/a	wordpools/wordpool_EN.txt	OAK	9	0	2	[0, 0, 0]	n/a	0	1	0	n/a	n/a	0.0	0	0	0	FR2	2	R1002P
268.732	1.6	277722	WORD	n/a	wordpools/wordpool_EN.txt	CLOWN	10	0	2	[0, 0, 0]	n/a	0	1	0	n/a	n/a	0.0	0	0	0	FR2	2	R1002P
270.974	4.6	278843	STIM_ON	n/a	n/a	n/a	-999	0	2	[0, 0, 0]	n/a	1	1	4600	LDA3	LDA4	1500.0	50	230	300	FR2	2	R1002P
271.183	1.6	278947	WORD	n/a	wordpools/wordpool_EN.txt	CALF	11	1	2	[0, 0, 0]	n/a	1	1	4600	LDA3	LDA4	1500.0	50	230	300	FR2	2	R1002P
273.666	1.6	280189	WORD	n/a	wordpools/wordpool_EN.txt	HORSE	12	1	2	[0, 0, 0]	n/a	1	1	4600	LDA3	LDA4	1500.0	50	230	300	FR2	2	R1002P
275.283	0.001	280997	DISTRACT_START	n/a	n/a	n/a	-999	0	2	[0, 0, 0]	n/a	1	1	4600	LDA3	LDA4	1500.0	50	230	300	FR2	2	R1002P
275.284	0.017	280997	START	n/a	n/a	n/a	-999	0	2	[-999, -999, -999]	n/a	0	1	0	n/a	n/a	0.0	0	0	0	FR2	2	R1002P
275.301	3.117	281006	PROB	3.097	n/a	n/a	-999	0	2	[2, 1, 9]	12	0	1	0	n/a	n/a	0.0	0	0	0	FR2	2	R1002P
278.418	3.467	282564	PROB	3.443	n/a	n/a	-999	0	2	[5, 4, 9]	18	0	1	0	n/a	n/a	0.0	0	0	0	FR2	2	R1002P
281.885	3.067	284298	PROB	3.032	n/a	n/a	-999	0	2	[8, 3, 8]	19	0	1	0	n/a	n/a	0.0	0	0	0	FR2	2	R1002P
284.952	6.101	285831	PROB	6.078	n/a	n/a	-999	0	2	[4, 8, 9]	20	0	1	0	n/a	n/a	0.0	0	0	0	FR2	2	R1002P
291.053	2.901	288882	PROB	2.872	n/a	n/a	-999	0	2	[9, 3, 1]	13	0	1	0	n/a	n/a	0.0	0	0	0	FR2	2	R1002P
293.954	4.668	290332	PROB	4.668	n/a	n/a	-999	0	2	[6, 4, 4]	14	0	1	0	n/a	n/a	0.0	0	0	0	FR2	2	R1002P
298.622	0.017	292666	STOP	n/a	n/a	n/a	-999	0	2	[-999, -999, -999]	n/a	0	1	0	n/a	n/a	0.0	0	0	0	FR2	2	R1002P
298.639	1.2	292674	DISTRACT_END	n/a	n/a	n/a	-999	0	2	[0, 0, 0]	n/a	0	1	0	n/a	n/a	0.0	0	0	0	FR2	2	R1002P
299.839	1.144	293274	REC_START	n/a	n/a	n/a	-999	0	2	[0, 0, 0]	n/a	0	1	0	n/a	n/a	0.0	0	0	0	FR2	2	R1002P
300.983	1.687	293846	REC_WORD	1.144	n/a	CALF	11	1	2	[0, 0, 0]	n/a	0	1	0	n/a	n/a	0.0	0	0	0	FR2	2	R1002P
302.67	1.602	294690	REC_WORD	2.831	n/a	HORSE	12	1	2	[0, 0, 0]	n/a	0	1	0	n/a	n/a	0.0	0	0	0	FR2	2	R1002P
304.272	2.303	295491	REC_WORD	4.433	n/a	JUICE	5	1	2	[0, 0, 0]	n/a	0	1	0	n/a	n/a	0.0	0	0	0	FR2	2	R1002P
306.575	2.018	296642	REC_WORD	6.736	n/a	SCHOOL	6	1	2	[0, 0, 0]	n/a	0	1	0	n/a	n/a	0.0	0	0	0	FR2	2	R1002P
308.593	21.255	297651	REC_WORD	8.754	n/a	BADGE	1	1	2	[0, 0, 0]	n/a	0	1	0	n/a	n/a	0.0	0	0	0	FR2	2	R1002P
329.848	2.313	308278	REC_END	n/a	n/a	n/a	-999	0	2	[0, 0, 0]	n/a	0	1	0	n/a	n/a	0.0	0	0	0	FR2	2	R1002P
332.161	10.0	309434	COUNTDOWN_START	n/a	n/a	n/a	-999	0	3	[0, 0, 0]	n/a	0	0	0	n/a	n/a	0.0	0	0	0	FR2	2	R1002P
332.161	10.428	309434	TRIAL	n/a	n/a	n/a	-999	0	3	[0, 0, 0]	n/a	0	0	0	n/a	n/a	0.0	0	0	0	FR2	2	R1002P
342.589	0.008	314648	COUNTDOWN_END	n/a	n/a	n/a	-999	0	3	[0, 0, 0]	n/a	0	0	0	n/a	n/a	0.0	0	0	0	FR2	2	R1002P
342.597	1.6	314652	ORIENT	n/a	n/a	n/a	-999	0	3	[0, 0, 0]	n/a	0	0	0	n/a	n/a	0.0	0	0	0	FR2	2	R1002P
345.197	1.6	315952	WORD	n/a	wordpools/wordpool_EN.txt	FORT	1	1	3	[0, 0, 0]	n/a	0	0	0	n/a	n/a	0.0	0	0	0	FR2	2	R1002P
347.714	1.6	317210	WORD	n/a	wordpools/wordpool_EN.txt	SMOKE	2	1	3	[0, 0, 0]	n/a	0	0	0	n/a	n/a	0.0	0	0	0	FR2	2	R1002P
350.332	1.6	318519	WORD	n/a	wordpools/wordpool_EN.txt	NAIL	3	1	3	[0, 0, 0]	n/a	0	0	0	n/a	n/a	0.0	0	0	0	FR2	2	R1002P
352.748	1.6	319727	WORD	n/a	wordpools/wordpool_EN.txt	CORD	4	0	3	[0, 0, 0]	n/a	0	0	0	n/a	n/a	0.0	0	0	0	FR2	2	R1002P
355.132	1.6	320919	WORD	n/a	wordpools/wordpool_EN.txt	BEE	5	0	3	[0, 0, 0]	n/a	0	0	0	n/a	n/a	0.0	0	0	0	FR2	2	R1002P
357.6	1.6	322153	WORD	n/a	wordpools/wordpool_EN.txt	TEETH	6	0	3	[0, 0, 0]	n/a	0	0	0	n/a	n/a	0.0	0	0	0	FR2	2	R1002P
360.183	1.6	323445	WORD	n/a	wordpools/wordpool_EN.txt	CASH	7	1	3	[0, 0, 0]	n/a	0	0	0	n/a	n/a	0.0	0	0	0	FR2	2	R1002P
362.733	1.6	324720	WORD	n/a	wordpools/wordpool_EN.txt	POLE	8	1	3	[0, 0, 0]	n/a	0	0	0	n/a	n/a	0.0	0	0	0	FR2	2	R1002P
365.184	1.6	325945	WORD	n/a	wordpools/wordpool_EN.txt	BOOK	9	0	3	[0, 0, 0]	n/a	0	0	0	n/a	n/a	0.0	0	0	0	FR2	2	R1002P
367.667	1.6	327186	WORD	n/a	wordpools/wordpool_EN.txt	CAT	10	0	3	[0, 0, 0]	n/a	0	0	0	n/a	n/a	0.0	0	0	0	FR2	2	R1002P
370.201	1.6	328453	WORD	n/a	wordpools/wordpool_EN.txt	WORLD	11	0	3	[0, 0, 0]	n/a	0	0	0	n/a	n/a	0.0	0	0	0	FR2	2	R1002P
372.702	1.6	329704	WORD	n/a	wordpools/wordpool_EN.txt	BANK	12	0	3	[0, 0, 0]	n/a	0	0	0	n/a	n/a	0.0	0	0	0	FR2	2	R1002P
374.32	0.001	330513	DISTRACT_START	n/a	n/a	n/a	-999	0	3	[0, 0, 0]	n/a	0	0	0	n/a	n/a	0.0	0	0	0	FR2	2	R1002P
374.321	0.015	330513	START	n/a	n/a	n/a	-999	0	3	[-999, -999, -999]	n/a	0	0	0	n/a	n/a	0.0	0	0	0	FR2	2	R1002P
374.336	4.068	330521	PROB	4.047	n/a	n/a	-999	0	3	[3, 5, 2]	10	0	0	0	n/a	n/a	0.0	0	0	0	FR2	2	R1002P
378.404	4.3	332555	PROB	4.273	n/a	n/a	-999	0	3	[4, 2, 5]	11	0	0	0	n/a	n/a	0.0	0	0	0	FR2	2	R1002P
382.704	2.601	334705	PROB	2.573	n/a	n/a	-999	0	3	[2, 8, 4]	14	0	0	0	n/a	n/a	0.0	0	0	0	FR2	2	R1002P
385.305	3.317	336005	PROB	3.286	n/a	n/a	-999	0	3	[7, 5, 3]	15	0	0	0	n/a	n/a	0.0	0	0	0	FR2	2	R1002P
388.622	3.367	337663	PROB	3.344	n/a	n/a	-999	0	3	[9, 9, 6]	24	0	0	0	n/a	n/a	0.0	0	0	0	FR2	2	R1002P
391.989	4.704	339347	PROB	4.704	n/a	n/a	-999	0	3	[7, 8, 5]	20	0	0	0	n/a	n/a	0.0	0	0	0	FR2	2	R1002P
396.693	0.013	341699	STOP	n/a	n/a	n/a	-999	0	3	[-999, -999, -999]	n/a	0	0	0	n/a	n/a	0.0	0	0	0	FR2	2	R1002P
396.706	1.101	341705	DISTRACT_END	n/a	n/a	n/a	-999	0	3	[0, 0, 0]	n/a	0	0	0	n/a	n/a	0.0	0	0	0	FR2	2	R1002P
397.807	1.358	342256	REC_START	n/a	n/a	n/a	-999	0	3	[0, 0, 0]	n/a	0	0	0	n/a	n/a	0.0	0	0	0	FR2	2	R1002P
399.165	1.912	342935	REC_WORD	1.358	n/a	FORT	1	1	3	[0, 0, 0]	n/a	0	0	0	n/a	n/a	0.0	0	0	0	FR2	2	R1002P
401.077	1.816	343891	REC_WORD	3.27	n/a	CASH	7	1	3	[0, 0, 0]	n/a	0	0	0	n/a	n/a	0.0	0	0	0	FR2	2	R1002P
402.893	6.53	344798	REC_WORD	5.086	n/a	NAIL	3	1	3	[0, 0, 0]	n/a	0	0	0	n/a	n/a	0.0	0	0	0	FR2	2	R1002P
409.423	1.544	348063	REC_WORD	11.616	n/a	SMOKE	2	1	3	[0, 0, 0]	n/a	0	0	0	n/a	n/a	0.0	0	0	0	FR2	2	R1002P
410.967	16.849	348835	REC_WORD	13.16	n/a	POLE	8	1	3	[0, 0, 0]	n/a	0	0	0	n/a	n/a	0.0	0	0	0	FR2	2	R1002P
427.816	2.23	357259	REC_END	n/a	n/a	n/a	-999	0	3	[0, 0, 0]	n/a	0	0	0	n/a	n/a	0.0	0	0	0	FR2	2	R1002P
430.046	0.0	358374	TRIAL	n/a	n/a	n/a	-999	0	4	[0, 0, 0]	n/a	0	0	0	n/a	n/a	0.0	0	0	0	FR2	2	R1002P
430.046	10.0	358374	COUNTDOWN_START	n/a	n/a	n/a	-999	0	4	[0, 0, 0]	n/a	0	0	0	n/a	n/a	0.0	0	0	0	FR2	2	R1002P
440.474	0.008	363588	COUNTDOWN_END	n/a	n/a	n/a	-999	0	4	[0, 0, 0]	n/a	0	0	0	n/a	n/a	0.0	0	0	0	FR2	2	R1002P
440.482	1.6	363592	ORIENT	n/a	n/a	n/a	-999	0	4	[0, 0, 0]	n/a	0	0	0	n/a	n/a	0.0	0	0	0	FR2	2	R1002P
442.932	1.6	364817	WORD	n/a	wordpools/wordpool_EN.txt	PEN	1	1	4	[0, 0, 0]	n/a	0	0	0	n/a	n/a	0.0	0	0	0	FR2	2	R1002P
445.466	1.6	366084	WORD	n/a	wordpools/wordpool_EN.txt	INK	2	1	4	[0, 0, 0]	n/a	0	0	0	n/a	n/a	0.0	0	0	0	FR2	2	R1002P
447.883	1.6	367292	WORD	n/a	wordpools/wordpool_EN.txt	TOY	3	0	4	[0, 0, 0]	n/a	0	0	0	n/a	n/a	0.0	0	0	0	FR2	2	R1002P
450.484	1.6	368593	WORD	n/a	wordpools/wordpool_EN.txt	BENCH	4	1	4	[0, 0, 0]	n/a	0	0	0	n/a	n/a	0.0	0	0	0	FR2	2	R1002P
452.934	1.6	369818	WORD	n/a	wordpools/wordpool_EN.txt	MILK	5	0	4	[0, 0, 0]	n/a	0	0	0	n/a	n/a	0.0	0	0	0	FR2	2	R1002P
455.468	1.6	371085	WORD	n/a	wordpools/wordpool_EN.txt	EAR	6	0	4	[0, 0, 0]	n/a	0	0	0	n/a	n/a	0.0	0	0	0	FR2	2	R1002P
457.934	1.6	372317	WORD	n/a	wordpools/wordpool_EN.txt	OWL	7	0	4	[0, 0, 0]	n/a	0	0	0	n/a	n/a	0.0	0	0	0	FR2	2	R1002P
460.369	1.6	373535	WORD	n/a	wordpools/wordpool_EN.txt	BREAD	8	0	4	[0, 0, 0]	n/a	0	0	0	n/a	n/a	0.0	0	0	0	FR2	2	R1002P
462.885	1.6	374793	WORD	n/a	wordpools/wordpool_EN.txt	PLATE	9	1	4	[0, 0, 0]	n/a	0	0	0	n/a	n/a	0.0	0	0	0	FR2	2	R1002P
465.387	1.6	376044	WORD	n/a	wordpools/wordpool_EN.txt	PASTE	10	0	4	[0, 0, 0]	n/a	0	0	0	n/a	n/a	0.0	0	0	0	FR2	2	R1002P
467.92	1.6	377310	WORD	n/a	wordpools/wordpool_EN.txt	BRUSH	11	0	4	[0, 0, 0]	n/a	0	0	0	n/a	n/a	0.0	0	0	0	FR2	2	R1002P
470.304	1.6	378502	WORD	n/a	wordpools/wordpool_EN.txt	GRAPE	12	0	4	[0, 0, 0]	n/a	0	0	0	n/a	n/a	0.0	0	0	0	FR2	2	R1002P
471.92	0.001	379310	DISTRACT_START	n/a	n/a	n/a	-999	0	4	[0, 0, 0]	n/a	0	0	0	n/a	n/a	0.0	0	0	0	FR2	2	R1002P
471.921	0.016	379311	START	n/a	n/a	n/a	-999	0	4	[-999, -999, -999]	n/a	0	0	0	n/a	n/a	0.0	0	0	0	FR2	2	R1002P
471.937	3.234	379319	PROB	3.213	n/a	n/a	-999	0	4	[5, 5, 7]	17	0	0	0	n/a	n/a	0.0	0	0	0	FR2	2	R1002P
475.171	4.651	380935	PROB	4.626	n/a	n/a	-999	0	4	[2, 5, 7]	14	0	0	0	n/a	n/a	0.0	0	0	0	FR2	2	R1002P
479.822	2.802	383261	PROB	2.776	n/a	n/a	-999	0	4	[3, 9, 1]	13	0	0	0	n/a	n/a	0.0	0	0	0	FR2	2	R1002P
482.624	4.599	384662	PROB	4.566	n/a	n/a	-999	0	4	[6, 7, 1]	14	0	0	0	n/a	n/a	0.0	0	0	0	FR2	2	R1002P
487.223	2.951	386961	PROB	2.918	n/a	n/a	-999	0	4	[3, 7, 3]	13	0	0	0	n/a	n/a	0.0	0	0	0	FR2	2	R1002P
490.174	4.0	388437	PROB	4.0	n/a	n/a	-999	0	4	[2, 7, 8]	17	0	0	0	n/a	n/a	0.0	0	0	0	FR2	2	R1002P
494.174	0.017	390436	STOP	n/a	n/a	n/a	-999	0	4	[-999, -999, -999]	n/a	0	0	0	n/a	n/a	0.0	0	0	0	FR2	2	R1002P
494.191	1.219	390445	DISTRACT_END	n/a	n/a	n/a	-999	0	4	[0, 0, 0]	n/a	0	0	0	n/a	n/a	0.0	0	0	0	FR2	2	R1002P
495.41	2.218	391054	REC_START	n/a	n/a	n/a	-999	0	4	[0, 0, 0]	n/a	0	0	0	n/a	n/a	0.0	0	0	0	FR2	2	R1002P
497.628	1.338	392163	REC_WORD	2.218	n/a	PEN	1	1	4	[0, 0, 0]	n/a	0	0	0	n/a	n/a	0.0	0	0	0	FR2	2	R1002P
498.966	3.738	392832	REC_WORD	3.556	n/a	INK	2	1	4	[0, 0, 0]	n/a	0	0	0	n/a	n/a	0.0	0	0	0	FR2	2	R1002P
502.704	6.857	394701	REC_WORD	7.294	n/a	PLATE	9	1	4	[0, 0, 0]	n/a	0	0	0	n/a	n/a	0.0	0	0	0	FR2	2	R1002P
509.561	15.859	398130	REC_WORD	14.151	n/a	BENCH	4	1	4	[0, 0, 0]	n/a	0	0	0	n/a	n/a	0.0	0	0	0	FR2	2	R1002P
525.42	2.129	406059	REC_END	n/a	n/a	n/a	-999	0	4	[0, 0, 0]	n/a	0	0	0	n/a	n/a	0.0	0	0	0	FR2	2	R1002P
527.549	0.0	407123	TRIAL	n/a	n/a	n/a	-999	0	5	[0, 0, 0]	n/a	0	1	0	n/a	n/a	0.0	0	0	0	FR2	2	R1002P
527.549	10.0	407123	COUNTDOWN_START	n/a	n/a	n/a	-999	0	5	[0, 0, 0]	n/a	0	1	0	n/a	n/a	0.0	0	0	0	FR2	2	R1002P
537.977	0.006	412337	COUNTDOWN_END	n/a	n/a	n/a	-999	0	5	[0, 0, 0]	n/a	0	1	0	n/a	n/a	0.0	0	0	0	FR2	2	R1002P
537.983	1.6	412340	ORIENT	n/a	n/a	n/a	-999	0	5	[0, 0, 0]	n/a	0	1	0	n/a	n/a	0.0	0	0	0	FR2	2	R1002P
540.21	4.6	413453	STIM_ON	n/a	n/a	n/a	-999	0	5	[0, 0, 0]	n/a	1	1	4600	LDA3	LDA4	1500.0	50	230	300	FR2	2	R1002P
540.418	1.6	413557	WORD	n/a	wordpools/wordpool_EN.txt	VINE	1	1	5	[0, 0, 0]	n/a	1	1	4600	LDA3	LDA4	1500.0	50	230	300	FR2	2	R1002P
542.834	1.6	414765	WORD	n/a	wordpools/wordpool_EN.txt	DRUM	2	1	5	[0, 0, 0]	n/a	1	1	4600	LDA3	LDA4	1500.0	50	230	300	FR2	2	R1002P
545.302	1.6	415999	WORD	n/a	wordpools/wordpool_EN.txt	PALM	3	1	5	[0, 0, 0]	n/a	0	1	0	n/a	n/a	0.0	0	0	0	FR2	2	R1002P
547.818	1.6	417257	WORD	n/a	wordpools/wordpool_EN.txt	SEAT	4	0	5	[0, 0, 0]	n/a	0	1	0	n/a	n/a	0.0	0	0	0	FR2	2	R1002P
550.021	4.6	418358	STIM_ON	n/a	n/a	n/a	-999	0	5	[0, 0, 0]	n/a	1	1	4600	LDA3	LDA4	1500.0	50	230	300	FR2	2	R1002P
550.235	1.6	418465	WORD	n/a	wordpools/wordpool_EN.txt	MUG	5	1	5	[0, 0, 0]	n/a	1	1	4600	LDA3	LDA4	1500.0	50	230	300	FR2	2	R1002P
552.669	1.6	419682	WORD	n/a	wordpools/wordpool_EN.txt	STRAW	6	1	5	[0, 0, 0]	n/a	1	1	4600	LDA3	LDA4	1500.0	50	230	300	FR2	2	R1002P
555.253	1.6	420974	WORD	n/a	wordpools/wordpool_EN.txt	GLASS	7	0	5	[0, 0, 0]	n/a	0	1	0	n/a	n/a	0.0	0	0	0	FR2	2	R1002P
557.67	1.6	422183	WORD	n/a	wordpools/wordpool_EN.txt	ROSE	8	0	5	[0, 0, 0]	n/a	0	1	0	n/a	n/a	0.0	0	0	0	FR2	2	R1002P
559.941	4.6	423318	STIM_ON	n/a	n/a	n/a	-999	0	5	[0, 0, 0]	n/a	1	1	4600	LDA3	LDA4	1500.0	50	230	300	FR2	2	R1002P
560.154	1.6	423425	WORD	n/a	wordpools/wordpool_EN.txt	BAND	9	1	5	[0, 0, 0]	n/a	1	1	4600	LDA3	LDA4	1500.0	50	230	300	FR2	2	R1002P
562.622	1.6	424659	WORD	n/a	wordpools/wordpool_EN.txt	HAND	10	0	5	[0, 0, 0]	n/a	1	1	4600	LDA3	LDA4	1500.0	50	230	300	FR2	2	R1002P
565.038	1.6	425866	WORD	n/a	wordpools/wordpool_EN.txt	CUBE	11	0	5	[0, 0, 0]	n/a	0	1	0	n/a	n/a	0.0	0	0	0	FR2	2	R1002P
567.623	1.6	427159	WORD	n/a	wordpools/wordpool_EN.txt	TRAY	12	0	5	[0, 0, 0]	n/a	0	1	0	n/a	n/a	0.0	0	0	0	FR2	2	R1002P
569.239	0.001	427967	DISTRACT_START	n/a	n/a	n/a	-999	0	5	[0, 0, 0]	n/a	0	1	0	n/a	n/a	0.0	0	0	0	FR2	2	R1002P
569.24	0.015	427967	START	n/a	n/a	n/a	-999	0	5	[-999, -999, -999]	n/a	0	1	0	n/a	n/a	0.0	0	0	0	FR2	2	R1002P
569.255	8.952	427975	PROB	8.918	n/a	n/a	-999	0	5	[9, 4, 8]	21	0	1	0	n/a	n/a	0.0	0	0	0	FR2	2	R1002P
578.207	3.701	432451	PROB	3.678	n/a	n/a	-999	0	5	[6, 8, 1]	15	0	1	0	n/a	n/a	0.0	0	0	0	FR2	2	R1002P
581.908	3.317	434301	PROB	3.281	n/a	n/a	-999	0	5	[7, 2, 1]	10	0	1	0	n/a	n/a	0.0	0	0	0	FR2	2	R1002P
585.225	3.468	435959	PROB	3.445	n/a	n/a	-999	0	5	[5, 4, 5]	14	0	1	0	n/a	n/a	0.0	0	0	0	FR2	2	R1002P
588.693	3.56	437693	PROB	3.56	n/a	n/a	-999	0	5	[7, 5, 3]	15	0	1	0	n/a	n/a	0.0	0	0	0	FR2	2	R1002P
592.253	0.007	439473	STOP	n/a	n/a	n/a	-999	0	5	[-999, -999, -999]	n/a	0	1	0	n/a	n/a	0.0	0	0	0	FR2	2	R1002P
592.26	1.052	439477	DISTRACT_END	n/a	n/a	n/a	-999	0	5	[0, 0, 0]	n/a	0	1	0	n/a	n/a	0.0	0	0	0	FR2	2	R1002P
593.312	2.444	440003	REC_START	n/a	n/a	n/a	-999	0	5	[0, 0, 0]	n/a	0	1	0	n/a	n/a	0.0	0	0	0	FR2	2	R1002P
595.756	1.185	441225	REC_WORD	2.444	n/a	MUG	5	1	5	[0, 0, 0]	n/a	0	1	0	n/a	n/a	0.0	0	0	0	FR2	2	R1002P
596.941	1.519	441817	REC_WORD	3.629	n/a	CUP	-999	0	5	[0, 0, 0]	n/a	0	1	0	n/a	n/a	0.0	0	0	0	FR2	2	R1002P
598.46	1.092	442577	REC_WORD	5.148	n/a	VINE	1	1	5	[0, 0, 0]	n/a	0	1	0	n/a	n/a	0.0	0	0	0	FR2	2	R1002P
599.552	4.423	443123	REC_WORD	6.24	n/a	STRAW	6	1	5	[0, 0, 0]	n/a	0	1	0	n/a	n/a	0.0	0	0	0	FR2	2	R1002P
603.975	2.024	445334	REC_WORD	10.663	n/a	DRUM	2	1	5	[0, 0, 0]	n/a	0	1	0	n/a	n/a	0.0	0	0	0	FR2	2	R1002P
605.999	12.127	446346	REC_WORD	12.687	n/a	PALM	3	1	5	[0, 0, 0]	n/a	0	1	0	n/a	n/a	0.0	0	0	0	FR2	2	R1002P
618.126	5.196	452409	REC_WORD	24.814	n/a	BAND	9	1	5	[0, 0, 0]	n/a	0	1	0	n/a	n/a	0.0	0	0	0	FR2	2	R1002P
623.322	1.844	455007	REC_END	n/a	n/a	n/a	-999	0	5	[0, 0, 0]	n/a	0	1	0	n/a	n/a	0.0	0	0	0	FR2	2	R1002P
625.166	10.0	455929	COUNTDOWN_START	n/a	n/a	n/a	-999	0	6	[0, 0, 0]	n/a	0	0	0	n/a	n/a	0.0	0	0	0	FR2	2	R1002P
625.166	10.428	455929	TRIAL	n/a	n/a	n/a	-999	0	6	[0, 0, 0]	n/a	0	0	0	n/a	n/a	0.0	0	0	0	FR2	2	R1002P
635.594	0.008	461143	COUNTDOWN_END	n/a	n/a	n/a	-999	0	6	[0, 0, 0]	n/a	0	0	0	n/a	n/a	0.0	0	0	0	FR2	2	R1002P
635.602	1.6	461147	ORIENT	n/a	n/a	n/a	-999	0	6	[0, 0, 0]	n/a	0	0	0	n/a	n/a	0.0	0	0	0	FR2	2	R1002P
638.152	1.6	462421	WORD	n/a	wordpools/wordpool_EN.txt	FRUIT	1	1	6	[0, 0, 0]	n/a	0	0	0	n/a	n/a	0.0	0	0	0	FR2	2	R1002P
640.603	1.6	463647	WORD	n/a	wordpools/wordpool_EN.txt	JAR	2	1	6	[0, 0, 0]	n/a	0	0	0	n/a	n/a	0.0	0	0	0	FR2	2	R1002P
643.086	1.6	464888	WORD	n/a	wordpools/wordpool_EN.txt	SEED	3	1	6	[0, 0, 0]	n/a	0	0	0	n/a	n/a	0.0	0	0	0	FR2	2	R1002P
645.621	1.6	466156	WORD	n/a	wordpools/wordpool_EN.txt	RAKE	4	0	6	[0, 0, 0]	n/a	0	0	0	n/a	n/a	0.0	0	0	0	FR2	2	R1002P
648.054	1.6	467372	WORD	n/a	wordpools/wordpool_EN.txt	MOTH	5	0	6	[0, 0, 0]	n/a	0	0	0	n/a	n/a	0.0	0	0	0	FR2	2	R1002P
650.455	1.6	468573	WORD	n/a	wordpools/wordpool_EN.txt	PEAR	6	1	6	[0, 0, 0]	n/a	0	0	0	n/a	n/a	0.0	0	0	0	FR2	2	R1002P
652.871	1.6	469781	WORD	n/a	wordpools/wordpool_EN.txt	COW	7	0	6	[0, 0, 0]	n/a	0	0	0	n/a	n/a	0.0	0	0	0	FR2	2	R1002P
655.423	1.6	471057	WORD	n/a	wordpools/wordpool_EN.txt	SNAKE	8	1	6	[0, 0, 0]	n/a	0	0	0	n/a	n/a	0.0	0	0	0	FR2	2	R1002P
657.822	1.6	472256	WORD	n/a	wordpools/wordpool_EN.txt	TREE	9	1	6	[0, 0, 0]	n/a	0	0	0	n/a	n/a	0.0	0	0	0	FR2	2	R1002P
660.189	1.6	473439	WORD	n/a	wordpools/wordpool_EN.txt	GOAT	10	0	6	[0, 0, 0]	n/a	0	0	0	n/a	n/a	0.0	0	0	0	FR2	2	R1002P
662.574	1.6	474632	WORD	n/a	wordpools/wordpool_EN.txt	FARM	11	1	6	[0, 0, 0]	n/a	0	0	0	n/a	n/a	0.0	0	0	0	FR2	2	R1002P
665.14	1.6	475915	WORD	n/a	wordpools/wordpool_EN.txt	ARK	12	0	6	[0, 0, 0]	n/a	0	0	0	n/a	n/a	0.0	0	0	0	FR2	2	R1002P
666.757	0.001	476723	DISTRACT_START	n/a	n/a	n/a	-999	0	6	[0, 0, 0]	n/a	0	0	0	n/a	n/a	0.0	0	0	0	FR2	2	R1002P
666.758	0.016	476724	START	n/a	n/a	n/a	-999	0	6	[-999, -999, -999]	n/a	0	0	0	n/a	n/a	0.0	0	0	0	FR2	2	R1002P
666.774	3.484	476732	PROB	3.448	n/a	n/a	-999	0	6	[3, 7, 9]	19	0	0	0	n/a	n/a	0.0	0	0	0	FR2	2	R1002P
670.258	3.201	478474	PROB	3.172	n/a	n/a	-999	0	6	[7, 2, 1]	10	0	0	0	n/a	n/a	0.0	0	0	0	FR2	2	R1002P
673.459	4.2	480074	PROB	4.171	n/a	n/a	-999	0	6	[6, 2, 2]	10	0	0	0	n/a	n/a	0.0	0	0	0	FR2	2	R1002P
677.659	4.118	482174	PROB	4.082	n/a	n/a	-999	0	6	[3, 6, 6]	15	0	0	0	n/a	n/a	0.0	0	0	0	FR2	2	R1002P
681.777	4.25	484233	PROB	4.228	n/a	n/a	-999	0	6	[9, 4, 7]	20	0	0	0	n/a	n/a	0.0	0	0	0	FR2	2	R1002P
686.027	4.372	486358	PROB	4.372	n/a	n/a	-999	0	6	[4, 5, 6]	15	0	0	0	n/a	n/a	0.0	0	0	0	FR2	2	R1002P
690.399	0.014	488544	STOP	n/a	n/a	n/a	-999	0	6	[-999, -999, -999]	n/a	0	0	0	n/a	n/a	0.0	0	0	0	FR2	2	R1002P
690.413	1.15	488551	DISTRACT_END	n/a	n/a	n/a	-999	0	6	[0, 0, 0]	n/a	0	0	0	n/a	n/a	0.0	0	0	0	FR2	2	R1002P
691.563	1.66	489126	REC_START	n/a	n/a	n/a	-999	0	6	[0, 0, 0]	n/a	0	0	0	n/a	n/a	0.0	0	0	0	FR2	2	R1002P
693.223	1.206	489955	REC_WORD	1.66	n/a	SEED	3	1	6	[0, 0, 0]	n/a	0	0	0	n/a	n/a	0.0	0	0	0	FR2	2	R1002P
694.429	1.32	490558	REC_WORD	2.866	n/a	FRUIT	1	1	6	[0, 0, 0]	n/a	0	0	0	n/a	n/a	0.0	0	0	0	FR2	2	R1002P
695.749	1.209	491218	REC_WORD	4.186	n/a	PEAR	6	1	6	[0, 0, 0]	n/a	0	0	0	n/a	n/a	0.0	0	0	0	FR2	2	R1002P
696.958	1.293	491823	REC_WORD	5.395	n/a	JAR	2	1	6	[0, 0, 0]	n/a	0	0	0	n/a	n/a	0.0	0	0	0	FR2	2	R1002P
698.251	6.039	492469	REC_WORD	6.688	n/a	FARM	11	1	6	[0, 0, 0]	n/a	0	0	0	n/a	n/a	0.0	0	0	0	FR2	2	R1002P
704.29	7.425	495489	REC_WORD	12.727	n/a	SNAKE	8	1	6	[0, 0, 0]	n/a	0	0	0	n/a	n/a	0.0	0	0	0	FR2	2	R1002P
711.715	9.862	499201	REC_WORD	20.152	n/a	TREE	9	1	6	[0, 0, 0]	n/a	0	0	0	n/a	n/a	0.0	0	0	0	FR2	2	R1002P
721.577	1.825	504132	REC_END	n/a	n/a	n/a	-999	0	6	[0, 0, 0]	n/a	0	0	0	n/a	n/a	0.0	0	0	0	FR2	2	R1002P
723.402	0.0	505044	TRIAL	n/a	n/a	n/a	-999	0	7	[0, 0, 0]	n/a	0	1	0	n/a	n/a	0.0	0	0	0	FR2	2	R1002P
723.402	10.0	505044	COUNTDOWN_START	n/a	n/a	n/a	-999	0	7	[0, 0, 0]	n/a	0	1	0	n/a	n/a	0.0	0	0	0	FR2	2	R1002P
733.83	0.007	510258	COUNTDOWN_END	n/a	n/a	n/a	-999	0	7	[0, 0, 0]	n/a	0	1	0	n/a	n/a	0.0	0	0	0	FR2	2	R1002P
733.837	1.6	510261	ORIENT	n/a	n/a	n/a	-999	0	7	[0, 0, 0]	n/a	0	1	0	n/a	n/a	0.0	0	0	0	FR2	2	R1002P
736.085	4.6	511385	STIM_ON	n/a	n/a	n/a	-999	0	7	[0, 0, 0]	n/a	1	1	4600	LDA3	LDA4	1500.0	50	230	300	FR2	2	R1002P
736.287	1.6	511486	WORD	n/a	wordpools/wordpool_EN.txt	ROOT	1	1	7	[0, 0, 0]	n/a	1	1	4600	LDA3	LDA4	1500.0	50	230	300	FR2	2	R1002P
738.754	1.6	512720	WORD	n/a	wordpools/wordpool_EN.txt	MOLE	2	0	7	[0, 0, 0]	n/a	1	1	4600	LDA3	LDA4	1500.0	50	230	300	FR2	2	R1002P
741.154	1.6	513920	WORD	n/a	wordpools/wordpool_EN.txt	LEAF	3	0	7	[0, 0, 0]	n/a	0	1	0	n/a	n/a	0.0	0	0	0	FR2	2	R1002P
743.688	1.6	515187	WORD	n/a	wordpools/wordpool_EN.txt	DART	4	0	7	[0, 0, 0]	n/a	0	1	0	n/a	n/a	0.0	0	0	0	FR2	2	R1002P
746.022	4.6	516354	STIM_ON	n/a	n/a	n/a	-999	0	7	[0, 0, 0]	n/a	1	1	4600	LDA3	LDA4	1500.0	50	230	300	FR2	2	R1002P
746.239	1.6	516462	WORD	n/a	wordpools/wordpool_EN.txt	FISH	5	1	7	[0, 0, 0]	n/a	1	1	4600	LDA3	LDA4	1500.0	50	230	300	FR2	2	R1002P
748.624	1.6	517654	WORD	n/a	wordpools/wordpool_EN.txt	LAKE	6	1	7	[0, 0, 0]	n/a	1	1	4600	LDA3	LDA4	1500.0	50	230	300	FR2	2	R1002P
751.19	1.6	518937	WORD	n/a	wordpools/wordpool_EN.txt	SALT	7	0	7	[0, 0, 0]	n/a	0	1	0	n/a	n/a	0.0	0	0	0	FR2	2	R1002P
753.574	1.6	520129	WORD	n/a	wordpools/wordpool_EN.txt	NET	8	1	7	[0, 0, 0]	n/a	0	1	0	n/a	n/a	0.0	0	0	0	FR2	2	R1002P
755.855	4.6	521270	STIM_ON	n/a	n/a	n/a	-999	0	7	[0, 0, 0]	n/a	1	1	4600	LDA3	LDA4	1500.0	50	230	300	FR2	2	R1002P
756.057	1.6	521371	WORD	n/a	wordpools/wordpool_EN.txt	ANT	9	1	7	[0, 0, 0]	n/a	1	1	4600	LDA3	LDA4	1500.0	50	230	300	FR2	2	R1002P
758.576	1.6	522630	WORD	n/a	wordpools/wordpool_EN.txt	RICE	10	0	7	[0, 0, 0]	n/a	1	1	4600	LDA3	LDA4	1500.0	50	230	300	FR2	2	R1002P
761.075	1.6	523880	WORD	n/a	wordpools/wordpool_EN.txt	TOOTH	11	0	7	[0, 0, 0]	n/a	0	1	0	n/a	n/a	0.0	0	0	0	FR2	2	R1002P
763.659	1.6	525172	WORD	n/a	wordpools/wordpool_EN.txt	PEARL	12	0	7	[0, 0, 0]	n/a	0	1	0	n/a	n/a	0.0	0	0	0	FR2	2	R1002P
765.276	0.001	525980	DISTRACT_START	n/a	n/a	n/a	-999	0	7	[0, 0, 0]	n/a	0	1	0	n/a	n/a	0.0	0	0	0	FR2	2	R1002P
765.277	0.015	525980	START	n/a	n/a	n/a	-999	0	7	[-999, -999, -999]	n/a	0	1	0	n/a	n/a	0.0	0	0	0	FR2	2	R1002P
765.292	3.818	525988	PROB	3.793	n/a	n/a	-999	0	7	[9, 2, 5]	16	0	1	0	n/a	n/a	0.0	0	0	0	FR2	2	R1002P
769.11	12.769	527897	PROB	12.736	n/a	n/a	-999	0	7	[7, 6, 9]	22	0	1	0	n/a	n/a	0.0	0	0	0	FR2	2	R1002P
781.879	5.271	534281	PROB	5.271	n/a	n/a	-999	0	7	[7, 8, 8]	22	0	1	0	n/a	n/a	0.0	0	0	0	FR2	2	R1002P
787.15	0.013	536916	STOP	n/a	n/a	n/a	-999	0	7	[-999, -999, -999]	n/a	0	1	0	n/a	n/a	0.0	0	0	0	FR2	2	R1002P
787.163	1.051	536923	DISTRACT_END	n/a	n/a	n/a	-999	0	7	[0, 0, 0]	n/a	0	1	0	n/a	n/a	0.0	0	0	0	FR2	2	R1002P
788.214	2.936	537448	REC_START	n/a	n/a	n/a	-999	0	7	[0, 0, 0]	n/a	0	1	0	n/a	n/a	0.0	0	0	0	FR2	2	R1002P
791.15	1.525	538916	REC_WORD	2.936	n/a	ROOT	1	1	7	[0, 0, 0]	n/a	0	1	0	n/a	n/a	0.0	0	0	0	FR2	2	R1002P
792.675	1.145	539679	REC_WORD	4.461	n/a	LAKE	6	1	7	[0, 0, 0]	n/a	0	1	0	n/a	n/a	0.0	0	0	0	FR2	2	R1002P
793.82	1.455	540251	REC_WORD	5.606	n/a	FISH	5	1	7	[0, 0, 0]	n/a	0	1	0	n/a	n/a	0.0	0	0	0	FR2	2	R1002P
795.275	1.515	540979	REC_WORD	7.061	n/a	NET	8	1	7	[0, 0, 0]	n/a	0	1	0	n/a	n/a	0.0	0	0	0	FR2	2	R1002P
796.79	21.434	541736	REC_WORD	8.576	n/a	ANT	9	1	7	[0, 0, 0]	n/a	0	1	0	n/a	n/a	0.0	0	0	0	FR2	2	R1002P
818.224	1.812	552453	REC_END	n/a	n/a	n/a	-999	0	7	[0, 0, 0]	n/a	0	1	0	n/a	n/a	0.0	0	0	0	FR2	2	R1002P
820.036	0.0	553358	TRIAL	n/a	n/a	n/a	-999	0	8	[0, 0, 0]	n/a	0	1	0	n/a	n/a	0.0	0	0	0	FR2	2	R1002P
820.036	10.0	553358	COUNTDOWN_START	n/a	n/a	n/a	-999	0	8	[0, 0, 0]	n/a	0	1	0	n/a	n/a	0.0	0	0	0	FR2	2	R1002P
830.464	0.008	558572	COUNTDOWN_END	n/a	n/a	n/a	-999	0	8	[0, 0, 0]	n/a	0	1	0	n/a	n/a	0.0	0	0	0	FR2	2	R1002P
830.472	1.6	558576	ORIENT	n/a	n/a	n/a	-999	0	8	[0, 0, 0]	n/a	0	1	0	n/a	n/a	0.0	0	0	0	FR2	2	R1002P
833.089	1.6	559885	WORD	n/a	wordpools/wordpool_EN.txt	MOUSE	1	1	8	[0, 0, 0]	n/a	0	1	0	n/a	n/a	0.0	0	0	0	FR2	2	R1002P
835.54	1.6	561110	WORD	n/a	wordpools/wordpool_EN.txt	ROOM	2	1	8	[0, 0, 0]	n/a	0	1	0	n/a	n/a	0.0	0	0	0	FR2	2	R1002P
837.861	4.6	562270	STIM_ON	n/a	n/a	n/a	-999	0	8	[0, 0, 0]	n/a	1	1	4600	LDA3	LDA4	1500.0	50	230	300	FR2	2	R1002P
838.073	1.6	562376	WORD	n/a	wordpools/wordpool_EN.txt	DRESS	3	1	8	[0, 0, 0]	n/a	1	1	4600	LDA3	LDA4	1500.0	50	230	300	FR2	2	R1002P
840.607	1.6	563643	WORD	n/a	wordpools/wordpool_EN.txt	LAMP	4	0	8	[0, 0, 0]	n/a	1	1	4600	LDA3	LDA4	1500.0	50	230	300	FR2	2	R1002P
843.241	1.6	564960	WORD	n/a	wordpools/wordpool_EN.txt	FUR	5	0	8	[0, 0, 0]	n/a	0	1	0	n/a	n/a	0.0	0	0	0	FR2	2	R1002P
845.808	1.6	566244	WORD	n/a	wordpools/wordpool_EN.txt	HOUSE	6	0	8	[0, 0, 0]	n/a	0	1	0	n/a	n/a	0.0	0	0	0	FR2	2	R1002P
848.108	4.6	567394	STIM_ON	n/a	n/a	n/a	-999	0	8	[0, 0, 0]	n/a	1	1	4600	LDA3	LDA4	1500.0	50	230	300	FR2	2	R1002P
848.326	1.6	567503	WORD	n/a	wordpools/wordpool_EN.txt	CART	7	0	8	[0, 0, 0]	n/a	1	1	4600	LDA3	LDA4	1500.0	50	230	300	FR2	2	R1002P
850.842	1.6	568761	WORD	n/a	wordpools/wordpool_EN.txt	SKUNK	8	0	8	[0, 0, 0]	n/a	1	1	4600	LDA3	LDA4	1500.0	50	230	300	FR2	2	R1002P
853.41	1.6	570045	WORD	n/a	wordpools/wordpool_EN.txt	BROOM	9	0	8	[0, 0, 0]	n/a	0	1	0	n/a	n/a	0.0	0	0	0	FR2	2	R1002P
855.893	1.6	571286	WORD	n/a	wordpools/wordpool_EN.txt	PIG	10	0	8	[0, 0, 0]	n/a	0	1	0	n/a	n/a	0.0	0	0	0	FR2	2	R1002P
858.084	4.6	572381	STIM_ON	n/a	n/a	n/a	-999	0	8	[0, 0, 0]	n/a	1	1	4600	LDA3	LDA4	1500.0	50	230	300	FR2	2	R1002P
858.293	1.6	572486	WORD	n/a	wordpools/wordpool_EN.txt	CHAIR	11	1	8	[0, 0, 0]	n/a	1	1	4600	LDA3	LDA4	1500.0	50	230	300	FR2	2	R1002P
860.694	1.6	573686	WORD	n/a	wordpools/wordpool_EN.txt	MOOSE	12	1	8	[0, 0, 0]	n/a	1	1	4600	LDA3	LDA4	1500.0	50	230	300	FR2	2	R1002P
862.312	0.001	574495	DISTRACT_START	n/a	n/a	n/a	-999	0	8	[0, 0, 0]	n/a	1	1	4600	LDA3	LDA4	1500.0	50	230	300	FR2	2	R1002P
862.313	0.015	574496	START	n/a	n/a	n/a	-999	0	8	[-999, -999, -999]	n/a	0	1	0	n/a	n/a	0.0	0	0	0	FR2	2	R1002P
862.328	8.834	574503	PROB	8.798	n/a	n/a	-999	0	8	[4, 3, 9]	16	0	1	0	n/a	n/a	0.0	0	0	0	FR2	2	R1002P
871.162	3.068	578920	PROB	3.035	n/a	n/a	-999	0	8	[6, 2, 2]	10	0	1	0	n/a	n/a	0.0	0	0	0	FR2	2	R1002P
874.23	3.268	580454	PROB	3.232	n/a	n/a	-999	0	8	[3, 2, 1]	6	0	1	0	n/a	n/a	0.0	0	0	0	FR2	2	R1002P
877.498	3.666	582088	PROB	3.644	n/a	n/a	-999	0	8	[4, 4, 6]	14	0	1	0	n/a	n/a	0.0	0	0	0	FR2	2	R1002P
881.164	4.347	583921	PROB	4.347	n/a	n/a	-999	0	8	[9, 3, 3]	15	0	1	0	n/a	n/a	0.0	0	0	0	FR2	2	R1002P
885.511	0.005	586094	STOP	n/a	n/a	n/a	-999	0	8	[-999, -999, -999]	n/a	0	1	0	n/a	n/a	0.0	0	0	0	FR2	2	R1002P
885.516	1.035	586097	DISTRACT_END	n/a	n/a	n/a	-999	0	8	[0, 0, 0]	n/a	0	1	0	n/a	n/a	0.0	0	0	0	FR2	2	R1002P
886.551	1.217	586614	REC_START	n/a	n/a	n/a	-999	0	8	[0, 0, 0]	n/a	0	1	0	n/a	n/a	0.0	0	0	0	FR2	2	R1002P
887.768	1.604	587223	REC_WORD	1.217	n/a	MOUSE	1	1	8	[0, 0, 0]	n/a	0	1	0	n/a	n/a	0.0	0	0	0	FR2	2	R1002P
889.372	1.136	588025	REC_WORD	2.821	n/a	MOOSE	12	1	8	[0, 0, 0]	n/a	0	1	0	n/a	n/a	0.0	0	0	0	FR2	2	R1002P
890.508	1.809	588593	REC_WORD	3.957	n/a	ROOM	2	1	8	[0, 0, 0]	n/a	0	1	0	n/a	n/a	0.0	0	0	0	FR2	2	R1002P
892.317	18.316	589497	REC_WORD	5.766	n/a	CHAIR	11	1	8	[0, 0, 0]	n/a	0	1	0	n/a	n/a	0.0	0	0	0	FR2	2	R1002P
910.633	5.929	598654	REC_WORD	24.082	n/a	DRESS	3	1	8	[0, 0, 0]	n/a	0	1	0	n/a	n/a	0.0	0	0	0	FR2	2	R1002P
916.562	1.827	601619	REC_END	n/a	n/a	n/a	-999	0	8	[0, 0, 0]	n/a	0	1	0	n/a	n/a	0.0	0	0	0	FR2	2	R1002P
918.389	0.0	602532	TRIAL	n/a	n/a	n/a	-999	0	9	[0, 0, 0]	n/a	0	1	0	n/a	n/a	0.0	0	0	0	FR2	2	R1002P
918.389	10.0	602532	COUNTDOWN_START	n/a	n/a	n/a	-999	0	9	[0, 0, 0]	n/a	0	1	0	n/a	n/a	0.0	0	0	0	FR2	2	R1002P
928.817	0.006	607746	COUNTDOWN_END	n/a	n/a	n/a	-999	0	9	[0, 0, 0]	n/a	0	1	0	n/a	n/a	0.0	0	0	0	FR2	2	R1002P
928.823	1.6	607749	ORIENT	n/a	n/a	n/a	-999	0	9	[0, 0, 0]	n/a	0	1	0	n/a	n/a	0.0	0	0	0	FR2	2	R1002P
931.197	4.6	608936	STIM_ON	n/a	n/a	n/a	-999	0	9	[0, 0, 0]	n/a	1	1	4600	LDA3	LDA4	1500.0	50	230	300	FR2	2	R1002P
931.408	1.6	609041	WORD	n/a	wordpools/wordpool_EN.txt	ROPE	1	1	9	[0, 0, 0]	n/a	1	1	4600	LDA3	LDA4	1500.0	50	230	300	FR2	2	R1002P
933.824	1.6	610249	WORD	n/a	wordpools/wordpool_EN.txt	LOCK	2	0	9	[0, 0, 0]	n/a	1	1	4600	LDA3	LDA4	1500.0	50	230	300	FR2	2	R1002P
936.241	1.6	611458	WORD	n/a	wordpools/wordpool_EN.txt	KITE	3	1	9	[0, 0, 0]	n/a	0	1	0	n/a	n/a	0.0	0	0	0	FR2	2	R1002P
938.658	1.6	612666	WORD	n/a	wordpools/wordpool_EN.txt	BARN	4	1	9	[0, 0, 0]	n/a	0	1	0	n/a	n/a	0.0	0	0	0	FR2	2	R1002P
940.925	4.6	613800	STIM_ON	n/a	n/a	n/a	-999	0	9	[0, 0, 0]	n/a	1	1	4600	LDA3	LDA4	1500.0	50	230	300	FR2	2	R1002P
941.142	1.6	613908	WORD	n/a	wordpools/wordpool_EN.txt	CLOTH	5	1	9	[0, 0, 0]	n/a	1	1	4600	LDA3	LDA4	1500.0	50	230	300	FR2	2	R1002P
943.544	1.6	615109	WORD	n/a	wordpools/wordpool_EN.txt	DOCK	6	0	9	[0, 0, 0]	n/a	1	1	4600	LDA3	LDA4	1500.0	50	230	300	FR2	2	R1002P
946.16	1.6	616417	WORD	n/a	wordpools/wordpool_EN.txt	SOAP	7	0	9	[0, 0, 0]	n/a	0	1	0	n/a	n/a	0.0	0	0	0	FR2	2	R1002P
948.71	1.6	617692	WORD	n/a	wordpools/wordpool_EN.txt	SLEEVE	8	0	9	[0, 0, 0]	n/a	0	1	0	n/a	n/a	0.0	0	0	0	FR2	2	R1002P
950.951	4.6	618812	STIM_ON	n/a	n/a	n/a	-999	0	9	[0, 0, 0]	n/a	1	1	4600	LDA3	LDA4	1500.0	50	230	300	FR2	2	R1002P
951.161	1.6	618917	WORD	n/a	wordpools/wordpool_EN.txt	LEG	9	0	9	[0, 0, 0]	n/a	1	1	4600	LDA3	LDA4	1500.0	50	230	300	FR2	2	R1002P
953.761	1.6	620217	WORD	n/a	wordpools/wordpool_EN.txt	FORK	10	0	9	[0, 0, 0]	n/a	1	1	4600	LDA3	LDA4	1500.0	50	230	300	FR2	2	R1002P
956.278	1.6	621476	WORD	n/a	wordpools/wordpool_EN.txt	SHEEP	11	1	9	[0, 0, 0]	n/a	0	1	0	n/a	n/a	0.0	0	0	0	FR2	2	R1002P
958.879	1.6	622776	WORD	n/a	wordpools/wordpool_EN.txt	STICK	12	1	9	[0, 0, 0]	n/a	0	1	0	n/a	n/a	0.0	0	0	0	FR2	2	R1002P
960.48	0.001	623577	DISTRACT_START	n/a	n/a	n/a	-999	0	9	[0, 0, 0]	n/a	0	1	0	n/a	n/a	0.0	0	0	0	FR2	2	R1002P
960.481	0.016	623577	START	n/a	n/a	n/a	-999	0	9	[-999, -999, -999]	n/a	0	1	0	n/a	n/a	0.0	0	0	0	FR2	2	R1002P
960.497	3.917	623585	PROB	3.894	n/a	n/a	-999	0	9	[2, 1, 2]	5	0	1	0	n/a	n/a	0.0	0	0	0	FR2	2	R1002P
964.414	3.383	625543	PROB	3.352	n/a	n/a	-999	0	9	[8, 2, 9]	19	0	1	0	n/a	n/a	0.0	0	0	0	FR2	2	R1002P
967.797	4.001	627235	PROB	3.969	n/a	n/a	-999	0	9	[3, 4, 9]	16	0	1	0	n/a	n/a	0.0	0	0	0	FR2	2	R1002P
971.798	5.218	629235	PROB	5.183	n/a	n/a	-999	0	9	[8, 9, 5]	23	0	1	0	n/a	n/a	0.0	0	0	0	FR2	2	R1002P
977.016	3.184	631844	PROB	3.158	n/a	n/a	-999	0	9	[2, 4, 6]	12	0	1	0	n/a	n/a	0.0	0	0	0	FR2	2	R1002P
980.2	4.262	633436	PROB	4.262	n/a	n/a	-999	0	9	[3, 5, 2]	10	0	1	0	n/a	n/a	0.0	0	0	0	FR2	2	R1002P
984.462	0.006	635567	STOP	n/a	n/a	n/a	-999	0	9	[-999, -999, -999]	n/a	0	1	0	n/a	n/a	0.0	0	0	0	FR2	2	R1002P
984.468	1.034	635570	DISTRACT_END	n/a	n/a	n/a	-999	0	9	[0, 0, 0]	n/a	0	1	0	n/a	n/a	0.0	0	0	0	FR2	2	R1002P
985.502	1.69	636087	REC_START	n/a	n/a	n/a	-999	0	9	[0, 0, 0]	n/a	0	1	0	n/a	n/a	0.0	0	0	0	FR2	2	R1002P
987.192	0.963	636932	REC_WORD	1.69	n/a	BARN	4	1	9	[0, 0, 0]	n/a	0	1	0	n/a	n/a	0.0	0	0	0	FR2	2	R1002P
988.155	1.604	637413	REC_WORD	2.653	n/a	SHEEP	11	1	9	[0, 0, 0]	n/a	0	1	0	n/a	n/a	0.0	0	0	0	FR2	2	R1002P
989.759	1.175	638215	REC_WORD	4.257	n/a	ROPE	1	1	9	[0, 0, 0]	n/a	0	1	0	n/a	n/a	0.0	0	0	0	FR2	2	R1002P
990.934	1.449	638803	REC_WORD	5.432	n/a	KITE	3	1	9	[0, 0, 0]	n/a	0	1	0	n/a	n/a	0.0	0	0	0	FR2	2	R1002P
992.383	7.418	639527	REC_WORD	6.881	n/a	CLOTH	5	1	9	[0, 0, 0]	n/a	0	1	0	n/a	n/a	0.0	0	0	0	FR2	2	R1002P
999.801	15.718	643236	REC_WORD	14.299	n/a	STICK	12	1	9	[0, 0, 0]	n/a	0	1	0	n/a	n/a	0.0	0	0	0	FR2	2	R1002P
1015.519	2.039	651095	REC_END	n/a	n/a	n/a	-999	0	9	[0, 0, 0]	n/a	0	1	0	n/a	n/a	0.0	0	0	0	FR2	2	R1002P
1017.558	0.0	652114	TRIAL	n/a	n/a	n/a	-999	0	10	[0, 0, 0]	n/a	0	1	0	n/a	n/a	0.0	0	0	0	FR2	2	R1002P
1017.558	10.0	652114	COUNTDOWN_START	n/a	n/a	n/a	-999	0	10	[0, 0, 0]	n/a	0	1	0	n/a	n/a	0.0	0	0	0	FR2	2	R1002P
1027.986	0.006	657328	COUNTDOWN_END	n/a	n/a	n/a	-999	0	10	[0, 0, 0]	n/a	0	1	0	n/a	n/a	0.0	0	0	0	FR2	2	R1002P
1027.992	1.6	657331	ORIENT	n/a	n/a	n/a	-999	0	10	[0, 0, 0]	n/a	0	1	0	n/a	n/a	0.0	0	0	0	FR2	2	R1002P
1030.342	4.6	658506	STIM_ON	n/a	n/a	n/a	-999	0	10	[0, 0, 0]	n/a	1	1	4600	LDA3	LDA4	1500.0	50	230	300	FR2	2	R1002P
1030.56	1.6	658615	WORD	n/a	wordpools/wordpool_EN.txt	TOE	1	1	10	[0, 0, 0]	n/a	1	1	4600	LDA3	LDA4	1500.0	50	230	300	FR2	2	R1002P
1033.076	1.6	659873	WORD	n/a	wordpools/wordpool_EN.txt	DOOR	2	0	10	[0, 0, 0]	n/a	1	1	4600	LDA3	LDA4	1500.0	50	230	300	FR2	2	R1002P
1035.511	1.6	661090	WORD	n/a	wordpools/wordpool_EN.txt	FAN	3	1	10	[0, 0, 0]	n/a	0	1	0	n/a	n/a	0.0	0	0	0	FR2	2	R1002P
1037.944	1.6	662306	WORD	n/a	wordpools/wordpool_EN.txt	GATE	4	0	10	[0, 0, 0]	n/a	0	1	0	n/a	n/a	0.0	0	0	0	FR2	2	R1002P
1040.303	4.6	663486	STIM_ON	n/a	n/a	n/a	-999	0	10	[0, 0, 0]	n/a	1	1	4600	LDA3	LDA4	1500.0	50	230	300	FR2	2	R1002P
1040.512	1.6	663590	WORD	n/a	wordpools/wordpool_EN.txt	ROAD	5	0	10	[0, 0, 0]	n/a	1	1	4600	LDA3	LDA4	1500.0	50	230	300	FR2	2	R1002P
1043.061	1.6	664865	WORD	n/a	wordpools/wordpool_EN.txt	FLOOR	6	1	10	[0, 0, 0]	n/a	1	1	4600	LDA3	LDA4	1500.0	50	230	300	FR2	2	R1002P
1045.63	1.6	666149	WORD	n/a	wordpools/wordpool_EN.txt	HILL	7	1	10	[0, 0, 0]	n/a	0	1	0	n/a	n/a	0.0	0	0	0	FR2	2	R1002P
1048.096	1.6	667382	WORD	n/a	wordpools/wordpool_EN.txt	SHOE	8	0	10	[0, 0, 0]	n/a	0	1	0	n/a	n/a	0.0	0	0	0	FR2	2	R1002P
1050.346	4.6	668507	STIM_ON	n/a	n/a	n/a	-999	0	10	[0, 0, 0]	n/a	1	1	4600	LDA3	LDA4	1500.0	50	230	300	FR2	2	R1002P
1050.547	1.6	668608	WORD	n/a	wordpools/wordpool_EN.txt	LAWN	9	0	10	[0, 0, 0]	n/a	1	1	4600	LDA3	LDA4	1500.0	50	230	300	FR2	2	R1002P
1052.997	1.6	669833	WORD	n/a	wordpools/wordpool_EN.txt	PEACH	10	1	10	[0, 0, 0]	n/a	1	1	4600	LDA3	LDA4	1500.0	50	230	300	FR2	2	R1002P
1055.465	1.6	671066	WORD	n/a	wordpools/wordpool_EN.txt	OAR	11	0	10	[0, 0, 0]	n/a	0	1	0	n/a	n/a	0.0	0	0	0	FR2	2	R1002P
1057.981	1.6	672324	WORD	n/a	wordpools/wordpool_EN.txt	CHEEK	12	0	10	[0, 0, 0]	n/a	0	1	0	n/a	n/a	0.0	0	0	0	FR2	2	R1002P
1059.582	0.001	673125	DISTRACT_START	n/a	n/a	n/a	-999	0	10	[0, 0, 0]	n/a	0	1	0	n/a	n/a	0.0	0	0	0	FR2	2	R1002P
1059.583	0.016	673125	START	n/a	n/a	n/a	-999	0	10	[-999, -999, -999]	n/a	0	1	0	n/a	n/a	0.0	0	0	0	FR2	2	R1002P
1059.599	4.35	673133	PROB	4.319	n/a	n/a	-999	0	10	[8, 9, 6]	22	0	1	0	n/a	n/a	0.0	0	0	0	FR2	2	R1002P
1063.949	4.468	675308	PROB	4.441	n/a	n/a	-999	0	10	[2, 2, 9]	13	0	1	0	n/a	n/a	0.0	0	0	0	FR2	2	R1002P
1068.417	4.534	677542	PROB	4.508	n/a	n/a	-999	0	10	[2, 6, 6]	14	0	1	0	n/a	n/a	0.0	0	0	0	FR2	2	R1002P
1072.951	3.384	679809	PROB	3.351	n/a	n/a	-999	0	10	[1, 2, 6]	9	0	1	0	n/a	n/a	0.0	0	0	0	FR2	2	R1002P
1076.335	3.934	681501	PROB	3.934	n/a	n/a	-999	0	10	[4, 6, 9]	19	0	1	0	n/a	n/a	0.0	0	0	0	FR2	2	R1002P
1080.269	0.016	683468	STOP	n/a	n/a	n/a	-999	0	10	[-999, -999, -999]	n/a	0	1	0	n/a	n/a	0.0	0	0	0	FR2	2	R1002P
1080.285	1.152	683476	DISTRACT_END	n/a	n/a	n/a	-999	0	10	[0, 0, 0]	n/a	0	1	0	n/a	n/a	0.0	0	0	0	FR2	2	R1002P
1081.437	3.714	684052	REC_START	n/a	n/a	n/a	-999	0	10	[0, 0, 0]	n/a	0	1	0	n/a	n/a	0.0	0	0	0	FR2	2	R1002P
1085.151	3.541	685909	REC_WORD	3.714	n/a	HILL	7	1	10	[0, 0, 0]	n/a	0	1	0	n/a	n/a	0.0	0	0	0	FR2	2	R1002P
1088.692	1.674	687679	REC_WORD	7.255	n/a	PEACH	10	1	10	[0, 0, 0]	n/a	0	1	0	n/a	n/a	0.0	0	0	0	FR2	2	R1002P
1090.366	1.801	688516	REC_WORD	8.929	n/a	TOE	1	1	10	[0, 0, 0]	n/a	0	1	0	n/a	n/a	0.0	0	0	0	FR2	2	R1002P
1092.167	3.829	689416	REC_WORD	10.73	n/a	FLOOR	6	1	10	[0, 0, 0]	n/a	0	1	0	n/a	n/a	0.0	0	0	0	FR2	2	R1002P
1095.996	9.451	691331	REC_WORD	14.559	n/a	BROOM	-999	0	10	[0, 0, 0]	n/a	0	1	0	n/a	n/a	0.0	0	0	0	FR2	2	R1002P
1105.447	6.002	696056	REC_WORD	24.01	n/a	FAN	3	1	10	[0, 0, 0]	n/a	0	1	0	n/a	n/a	0.0	0	0	0	FR2	2	R1002P
1111.449	1.86	699057	REC_END	n/a	n/a	n/a	-999	0	10	[0, 0, 0]	n/a	0	1	0	n/a	n/a	0.0	0	0	0	FR2	2	R1002P
1113.309	0.0	699987	TRIAL	n/a	n/a	n/a	-999	0	11	[0, 0, 0]	n/a	0	1	0	n/a	n/a	0.0	0	0	0	FR2	2	R1002P
1113.309	10.0	699987	COUNTDOWN_START	n/a	n/a	n/a	-999	0	11	[0, 0, 0]	n/a	0	1	0	n/a	n/a	0.0	0	0	0	FR2	2	R1002P
1123.737	0.006	705201	COUNTDOWN_END	n/a	n/a	n/a	-999	0	11	[0, 0, 0]	n/a	0	1	0	n/a	n/a	0.0	0	0	0	FR2	2	R1002P
1123.743	1.6	705204	ORIENT	n/a	n/a	n/a	-999	0	11	[0, 0, 0]	n/a	0	1	0	n/a	n/a	0.0	0	0	0	FR2	2	R1002P
1126.177	1.6	706421	WORD	n/a	wordpools/wordpool_EN.txt	SWORD	1	1	11	[0, 0, 0]	n/a	0	1	0	n/a	n/a	0.0	0	0	0	FR2	2	R1002P
1128.562	1.6	707613	WORD	n/a	wordpools/wordpool_EN.txt	SEA	2	1	11	[0, 0, 0]	n/a	0	1	0	n/a	n/a	0.0	0	0	0	FR2	2	R1002P
1130.834	4.6	708749	STIM_ON	n/a	n/a	n/a	-999	0	11	[0, 0, 0]	n/a	1	1	4600	LDA3	LDA4	1500.0	50	230	300	FR2	2	R1002P
1131.045	1.6	708854	WORD	n/a	wordpools/wordpool_EN.txt	BEACH	3	0	11	[0, 0, 0]	n/a	1	1	4600	LDA3	LDA4	1500.0	50	230	300	FR2	2	R1002P
1133.613	1.6	710138	WORD	n/a	wordpools/wordpool_EN.txt	CANE	4	0	11	[0, 0, 0]	n/a	1	1	4600	LDA3	LDA4	1500.0	50	230	300	FR2	2	R1002P
1136.129	1.6	711396	WORD	n/a	wordpools/wordpool_EN.txt	SPEAR	5	0	11	[0, 0, 0]	n/a	0	1	0	n/a	n/a	0.0	0	0	0	FR2	2	R1002P
1138.68	1.6	712672	WORD	n/a	wordpools/wordpool_EN.txt	PANTS	6	0	11	[0, 0, 0]	n/a	0	1	0	n/a	n/a	0.0	0	0	0	FR2	2	R1002P
1140.919	4.6	713791	STIM_ON	n/a	n/a	n/a	-999	0	11	[0, 0, 0]	n/a	1	1	4600	LDA3	LDA4	1500.0	50	230	300	FR2	2	R1002P
1141.13	1.6	713897	WORD	n/a	wordpools/wordpool_EN.txt	RIB	7	0	11	[0, 0, 0]	n/a	1	1	4600	LDA3	LDA4	1500.0	50	230	300	FR2	2	R1002P
1143.697	1.6	715180	WORD	n/a	wordpools/wordpool_EN.txt	MOUTH	8	0	11	[0, 0, 0]	n/a	1	1	4600	LDA3	LDA4	1500.0	50	230	300	FR2	2	R1002P
1146.114	1.6	716388	WORD	n/a	wordpools/wordpool_EN.txt	SIGN	9	0	11	[0, 0, 0]	n/a	0	1	0	n/a	n/a	0.0	0	0	0	FR2	2	R1002P
1148.499	1.6	717581	WORD	n/a	wordpools/wordpool_EN.txt	CLIFF	10	1	11	[0, 0, 0]	n/a	0	1	0	n/a	n/a	0.0	0	0	0	FR2	2	R1002P
1150.773	4.6	718718	STIM_ON	n/a	n/a	n/a	-999	0	11	[0, 0, 0]	n/a	1	1	4600	LDA3	LDA4	1500.0	50	230	300	FR2	2	R1002P
1150.982	1.6	718822	WORD	n/a	wordpools/wordpool_EN.txt	SWAMP	11	1	11	[0, 0, 0]	n/a	1	1	4600	LDA3	LDA4	1500.0	50	230	300	FR2	2	R1002P
1153.583	1.6	720123	WORD	n/a	wordpools/wordpool_EN.txt	HAT	12	0	11	[0, 0, 0]	n/a	1	1	4600	LDA3	LDA4	1500.0	50	230	300	FR2	2	R1002P
1155.199	0.001	720931	DISTRACT_START	n/a	n/a	n/a	-999	0	11	[0, 0, 0]	n/a	1	1	4600	LDA3	LDA4	1500.0	50	230	300	FR2	2	R1002P
1155.2	0.016	720931	START	n/a	n/a	n/a	-999	0	11	[-999, -999, -999]	n/a	0	1	0	n/a	n/a	0.0	0	0	0	FR2	2	R1002P
1155.216	5.402	720939	PROB	5.367	n/a	n/a	-999	0	11	[6, 3, 8]	17	0	1	0	n/a	n/a	0.0	0	0	0	FR2	2	R1002P
1160.618	4.3	723640	PROB	4.268	n/a	n/a	-999	0	11	[2, 3, 1]	6	0	1	0	n/a	n/a	0.0	0	0	0	FR2	2	R1002P
1164.918	6.268	725790	PROB	6.239	n/a	n/a	-999	0	11	[8, 7, 7]	22	0	1	0	n/a	n/a	0.0	0	0	0	FR2	2	R1002P
1171.186	4.293	728924	PROB	4.293	n/a	n/a	-999	0	11	[7, 1, 4]	12	0	1	0	n/a	n/a	0.0	0	0	0	FR2	2	R1002P
1175.479	0.008	731070	STOP	n/a	n/a	n/a	-999	0	11	[-999, -999, -999]	n/a	0	1	0	n/a	n/a	0.0	0	0	0	FR2	2	R1002P
1175.487	1.068	731074	DISTRACT_END	n/a	n/a	n/a	-999	0	11	[0, 0, 0]	n/a	0	1	0	n/a	n/a	0.0	0	0	0	FR2	2	R1002P
1176.555	4.244	731608	REC_START	n/a	n/a	n/a	-999	0	11	[0, 0, 0]	n/a	0	1	0	n/a	n/a	0.0	0	0	0	FR2	2	R1002P
1180.799	2.208	733730	REC_WORD	4.244	n/a	SWORD	1	1	11	[0, 0, 0]	n/a	0	1	0	n/a	n/a	0.0	0	0	0	FR2	2	R1002P
1183.007	6.394	734834	REC_WORD	6.452	n/a	CLIFF	10	1	11	[0, 0, 0]	n/a	0	1	0	n/a	n/a	0.0	0	0	0	FR2	2	R1002P
1189.401	6.576	738031	REC_WORD	12.846	n/a	SHIELD	-999	0	11	[0, 0, 0]	n/a	0	1	0	n/a	n/a	0.0	0	0	0	FR2	2	R1002P
1195.977	1.21	741319	REC_WORD	19.422	n/a	SEA	2	1	11	[0, 0, 0]	n/a	0	1	0	n/a	n/a	0.0	0	0	0	FR2	2	R1002P
1197.187	9.38	741924	REC_WORD	20.632	n/a	SWAMP	11	1	11	[0, 0, 0]	n/a	0	1	0	n/a	n/a	0.0	0	0	0	FR2	2	R1002P
1206.567	2.777	746613	REC_END	n/a	n/a	n/a	-999	0	11	[0, 0, 0]	n/a	0	1	0	n/a	n/a	0.0	0	0	0	FR2	2	R1002P
1209.344	10.0	748002	COUNTDOWN_START	n/a	n/a	n/a	-999	0	12	[0, 0, 0]	n/a	0	1	0	n/a	n/a	0.0	0	0	0	FR2	2	R1002P
1209.344	10.428	748002	TRIAL	n/a	n/a	n/a	-999	0	12	[0, 0, 0]	n/a	0	1	0	n/a	n/a	0.0	0	0	0	FR2	2	R1002P
1219.772	0.006	753215	COUNTDOWN_END	n/a	n/a	n/a	-999	0	12	[0, 0, 0]	n/a	0	1	0	n/a	n/a	0.0	0	0	0	FR2	2	R1002P
1219.778	1.6	753218	ORIENT	n/a	n/a	n/a	-999	0	12	[0, 0, 0]	n/a	0	1	0	n/a	n/a	0.0	0	0	0	FR2	2	R1002P
1222.313	1.6	754486	WORD	n/a	wordpools/wordpool_EN.txt	PLANT	1	0	12	[0, 0, 0]	n/a	0	1	0	n/a	n/a	0.0	0	0	0	FR2	2	R1002P
1224.746	1.6	755702	WORD	n/a	wordpools/wordpool_EN.txt	STEM	2	0	12	[0, 0, 0]	n/a	0	1	0	n/a	n/a	0.0	0	0	0	FR2	2	R1002P
1226.943	4.6	756801	STIM_ON	n/a	n/a	n/a	-999	0	12	[0, 0, 0]	n/a	1	1	4600	LDA3	LDA4	1500.0	50	230	300	FR2	2	R1002P
1227.146	1.6	756902	WORD	n/a	wordpools/wordpool_EN.txt	CAR	3	0	12	[0, 0, 0]	n/a	1	1	4600	LDA3	LDA4	1500.0	50	230	300	FR2	2	R1002P
1229.663	1.6	758161	WORD	n/a	wordpools/wordpool_EN.txt	ROCK	4	1	12	[0, 0, 0]	n/a	1	1	4600	LDA3	LDA4	1500.0	50	230	300	FR2	2	R1002P
1232.247	1.6	759453	WORD	n/a	wordpools/wordpool_EN.txt	SUN	5	1	12	[0, 0, 0]	n/a	0	1	0	n/a	n/a	0.0	0	0	0	FR2	2	R1002P
1234.881	1.6	760770	WORD	n/a	wordpools/wordpool_EN.txt	ICE	6	0	12	[0, 0, 0]	n/a	0	1	0	n/a	n/a	0.0	0	0	0	FR2	2	R1002P
1237.12	4.6	761889	STIM_ON	n/a	n/a	n/a	-999	0	12	[0, 0, 0]	n/a	1	1	4600	LDA3	LDA4	1500.0	50	230	300	FR2	2	R1002P
1237.333	1.6	761995	WORD	n/a	wordpools/wordpool_EN.txt	BOMB	7	0	12	[0, 0, 0]	n/a	1	1	4600	LDA3	LDA4	1500.0	50	230	300	FR2	2	R1002P
1239.882	1.6	763270	WORD	n/a	wordpools/wordpool_EN.txt	KEY	8	0	12	[0, 0, 0]	n/a	1	1	4600	LDA3	LDA4	1500.0	50	230	300	FR2	2	R1002P
1242.317	1.6	764487	WORD	n/a	wordpools/wordpool_EN.txt	MOON	9	1	12	[0, 0, 0]	n/a	0	1	0	n/a	n/a	0.0	0	0	0	FR2	2	R1002P
1244.866	1.6	765762	WORD	n/a	wordpools/wordpool_EN.txt	STAR	10	1	12	[0, 0, 0]	n/a	0	1	0	n/a	n/a	0.0	0	0	0	FR2	2	R1002P
1247.07	4.6	766864	STIM_ON	n/a	n/a	n/a	-999	0	12	[0, 0, 0]	n/a	1	1	4600	LDA3	LDA4	1500.0	50	230	300	FR2	2	R1002P
1247.283	1.6	766970	WORD	n/a	wordpools/wordpool_EN.txt	FLUTE	11	0	12	[0, 0, 0]	n/a	1	1	4600	LDA3	LDA4	1500.0	50	230	300	FR2	2	R1002P
1249.867	1.6	768262	WORD	n/a	wordpools/wordpool_EN.txt	MAP	12	0	12	[0, 0, 0]	n/a	1	1	4600	LDA3	LDA4	1500.0	50	230	300	FR2	2	R1002P
1251.468	0.001	769063	DISTRACT_START	n/a	n/a	n/a	-999	0	12	[0, 0, 0]	n/a	1	1	4600	LDA3	LDA4	1500.0	50	230	300	FR2	2	R1002P
1251.469	0.016	769063	START	n/a	n/a	n/a	-999	0	12	[-999, -999, -999]	n/a	0	1	0	n/a	n/a	0.0	0	0	0	FR2	2	R1002P
1251.485	5.868	769071	PROB	5.841	n/a	n/a	-999	0	12	[7, 9, 4]	22	0	1	0	n/a	n/a	0.0	0	0	0	FR2	2	R1002P
1257.353	5.45	772005	PROB	5.421	n/a	n/a	-999	0	12	[8, 4, 7]	19	0	1	0	n/a	n/a	0.0	0	0	0	FR2	2	R1002P
1262.803	4.467	774730	PROB	4.443	n/a	n/a	-999	0	12	[5, 4, 8]	17	0	1	0	n/a	n/a	0.0	0	0	0	FR2	2	R1002P
1267.27	5.936	776963	PROB	5.936	n/a	n/a	-999	0	12	[6, 8, 8]	24	0	1	0	n/a	n/a	0.0	0	0	0	FR2	2	R1002P
1273.206	0.016	779931	STOP	n/a	n/a	n/a	-999	0	12	[-999, -999, -999]	n/a	0	1	0	n/a	n/a	0.0	0	0	0	FR2	2	R1002P
1273.222	1.224	779939	DISTRACT_END	n/a	n/a	n/a	-999	0	12	[0, 0, 0]	n/a	0	1	0	n/a	n/a	0.0	0	0	0	FR2	2	R1002P
1274.446	1.238	780551	REC_START	n/a	n/a	n/a	-999	0	12	[0, 0, 0]	n/a	0	1	0	n/a	n/a	0.0	0	0	0	FR2	2	R1002P
1275.684	1.434	781170	REC_WORD	1.238	n/a	SUN	5	1	12	[0, 0, 0]	n/a	0	1	0	n/a	n/a	0.0	0	0	0	FR2	2	R1002P
1277.118	1.046	781887	REC_WORD	2.672	n/a	MOON	9	1	12	[0, 0, 0]	n/a	0	1	0	n/a	n/a	0.0	0	0	0	FR2	2	R1002P
1278.164	13.722	782410	REC_WORD	3.718	n/a	STAR	10	1	12	[0, 0, 0]	n/a	0	1	0	n/a	n/a	0.0	0	0	0	FR2	2	R1002P
1291.886	12.566	789270	REC_WORD	17.44	n/a	ROCK	4	1	12	[0, 0, 0]	n/a	0	1	0	n/a	n/a	0.0	0	0	0	FR2	2	R1002P
1304.452	2.01	795553	REC_END	n/a	n/a	n/a	-999	0	12	[0, 0, 0]	n/a	0	1	0	n/a	n/a	0.0	0	0	0	FR2	2	R1002P
1306.462	0.0	796558	TRIAL	n/a	n/a	n/a	-999	0	13	[0, 0, 0]	n/a	0	1	0	n/a	n/a	0.0	0	0	0	FR2	2	R1002P
1306.462	10.0	796558	COUNTDOWN_START	n/a	n/a	n/a	-999	0	13	[0, 0, 0]	n/a	0	1	0	n/a	n/a	0.0	0	0	0	FR2	2	R1002P
1316.89	0.006	801772	COUNTDOWN_END	n/a	n/a	n/a	-999	0	13	[0, 0, 0]	n/a	0	1	0	n/a	n/a	0.0	0	0	0	FR2	2	R1002P
1316.896	1.6	801775	ORIENT	n/a	n/a	n/a	-999	0	13	[0, 0, 0]	n/a	0	1	0	n/a	n/a	0.0	0	0	0	FR2	2	R1002P
1319.381	1.6	803017	WORD	n/a	wordpools/wordpool_EN.txt	DEER	1	1	13	[0, 0, 0]	n/a	0	1	0	n/a	n/a	0.0	0	0	0	FR2	2	R1002P
1321.931	1.6	804292	WORD	n/a	wordpools/wordpool_EN.txt	LAMB	2	0	13	[0, 0, 0]	n/a	0	1	0	n/a	n/a	0.0	0	0	0	FR2	2	R1002P
1324.215	4.6	805434	STIM_ON	n/a	n/a	n/a	-999	0	13	[0, 0, 0]	n/a	1	1	4600	LDA3	LDA4	1500.0	50	230	300	FR2	2	R1002P
1324.432	1.6	805543	WORD	n/a	wordpools/wordpool_EN.txt	MAT	3	0	13	[0, 0, 0]	n/a	1	1	4600	LDA3	LDA4	1500.0	50	230	300	FR2	2	R1002P
1326.915	1.6	806784	WORD	n/a	wordpools/wordpool_EN.txt	YARD	4	1	13	[0, 0, 0]	n/a	1	1	4600	LDA3	LDA4	1500.0	50	230	300	FR2	2	R1002P
1329.366	1.6	808009	WORD	n/a	wordpools/wordpool_EN.txt	BOOT	5	0	13	[0, 0, 0]	n/a	0	1	0	n/a	n/a	0.0	0	0	0	FR2	2	R1002P
1331.949	1.6	809301	WORD	n/a	wordpools/wordpool_EN.txt	AXE	6	0	13	[0, 0, 0]	n/a	0	1	0	n/a	n/a	0.0	0	0	0	FR2	2	R1002P
1334.269	4.6	810461	STIM_ON	n/a	n/a	n/a	-999	0	13	[0, 0, 0]	n/a	1	1	4600	LDA3	LDA4	1500.0	50	230	300	FR2	2	R1002P
1334.484	1.6	810568	WORD	n/a	wordpools/wordpool_EN.txt	BOX	7	0	13	[0, 0, 0]	n/a	1	1	4600	LDA3	LDA4	1500.0	50	230	300	FR2	2	R1002P
1336.9	1.6	811776	WORD	n/a	wordpools/wordpool_EN.txt	TAIL	8	0	13	[0, 0, 0]	n/a	1	1	4600	LDA3	LDA4	1500.0	50	230	300	FR2	2	R1002P
1339.318	1.6	812985	WORD	n/a	wordpools/wordpool_EN.txt	CAGE	9	0	13	[0, 0, 0]	n/a	0	1	0	n/a	n/a	0.0	0	0	0	FR2	2	R1002P
1341.834	1.6	814243	WORD	n/a	wordpools/wordpool_EN.txt	POOL	10	1	13	[0, 0, 0]	n/a	0	1	0	n/a	n/a	0.0	0	0	0	FR2	2	R1002P
1344.123	4.6	815388	STIM_ON	n/a	n/a	n/a	-999	0	13	[0, 0, 0]	n/a	1	1	4600	LDA3	LDA4	1500.0	50	230	300	FR2	2	R1002P
1344.336	1.6	815494	WORD	n/a	wordpools/wordpool_EN.txt	JEEP	11	1	13	[0, 0, 0]	n/a	1	1	4600	LDA3	LDA4	1500.0	50	230	300	FR2	2	R1002P
1346.819	1.6	816735	WORD	n/a	wordpools/wordpool_EN.txt	FUDGE	12	0	13	[0, 0, 0]	n/a	1	1	4600	LDA3	LDA4	1500.0	50	230	300	FR2	2	R1002P
1348.437	0.001	817544	DISTRACT_START	n/a	n/a	n/a	-999	0	13	[0, 0, 0]	n/a	1	1	4600	LDA3	LDA4	1500.0	50	230	300	FR2	2	R1002P
1348.438	0.015	817545	START	n/a	n/a	n/a	-999	0	13	[-999, -999, -999]	n/a	0	1	0	n/a	n/a	0.0	0	0	0	FR2	2	R1002P
1348.453	4.5	817552	PROB	4.464	n/a	n/a	-999	0	13	[9, 9, 6]	24	0	1	0	n/a	n/a	0.0	0	0	0	FR2	2	R1002P
1352.953	3.118	819802	PROB	3.085	n/a	n/a	-999	0	13	[7, 3, 5]	15	0	1	0	n/a	n/a	0.0	0	0	0	FR2	2	R1002P
1356.071	5.067	821361	PROB	5.038	n/a	n/a	-999	0	13	[2, 5, 9]	16	0	1	0	n/a	n/a	0.0	0	0	0	FR2	2	R1002P
1361.138	5.535	823895	PROB	5.507	n/a	n/a	-999	0	13	[9, 5, 8]	23	0	1	0	n/a	n/a	0.0	0	0	0	FR2	2	R1002P
1366.673	6.101	826662	PROB	6.101	n/a	n/a	-999	0	13	[8, 5, 6]	19	0	1	0	n/a	n/a	0.0	0	0	0	FR2	2	R1002P
1372.774	0.016	829712	STOP	n/a	n/a	n/a	-999	0	13	[-999, -999, -999]	n/a	0	1	0	n/a	n/a	0.0	0	0	0	FR2	2	R1002P
1372.79	1.068	829720	DISTRACT_END	n/a	n/a	n/a	-999	0	13	[0, 0, 0]	n/a	0	1	0	n/a	n/a	0.0	0	0	0	FR2	2	R1002P
1373.858	2.665	830254	REC_START	n/a	n/a	n/a	-999	0	13	[0, 0, 0]	n/a	0	1	0	n/a	n/a	0.0	0	0	0	FR2	2	R1002P
1376.523	0.854	831587	REC_WORD	2.665	n/a	DEER	1	1	13	[0, 0, 0]	n/a	0	1	0	n/a	n/a	0.0	0	0	0	FR2	2	R1002P
1377.377	1.066	832014	REC_WORD	3.519	n/a	SHEEP	-999	0	13	[0, 0, 0]	n/a	0	1	0	n/a	n/a	0.0	0	0	0	FR2	2	R1002P
1378.443	2.248	832547	REC_WORD	4.585	n/a	YARD	4	1	13	[0, 0, 0]	n/a	0	1	0	n/a	n/a	0.0	0	0	0	FR2	2	R1002P
1380.691	3.261	833671	REC_WORD	6.833	n/a	JEEP	11	1	13	[0, 0, 0]	n/a	0	1	0	n/a	n/a	0.0	0	0	0	FR2	2	R1002P
1383.952	19.918	835301	REC_WORD	10.094	n/a	POOL	10	1	13	[0, 0, 0]	n/a	0	1	0	n/a	n/a	0.0	0	0	0	FR2	2	R1002P
1403.87	2.043	845259	REC_END	n/a	n/a	n/a	-999	0	13	[0, 0, 0]	n/a	0	1	0	n/a	n/a	0.0	0	0	0	FR2	2	R1002P
1405.913	10.0	846281	COUNTDOWN_START	n/a	n/a	n/a	-999	0	14	[0, 0, 0]	n/a	0	1	0	n/a	n/a	0.0	0	0	0	FR2	2	R1002P
1405.914	10.427	846281	TRIAL	n/a	n/a	n/a	-999	0	14	[0, 0, 0]	n/a	0	1	0	n/a	n/a	0.0	0	0	0	FR2	2	R1002P
1416.341	0.009	851495	COUNTDOWN_END	n/a	n/a	n/a	-999	0	14	[0, 0, 0]	n/a	0	1	0	n/a	n/a	0.0	0	0	0	FR2	2	R1002P
1416.35	1.6	851499	ORIENT	n/a	n/a	n/a	-999	0	14	[0, 0, 0]	n/a	0	1	0	n/a	n/a	0.0	0	0	0	FR2	2	R1002P
1418.602	4.6	852625	STIM_ON	n/a	n/a	n/a	-999	0	14	[0, 0, 0]	n/a	1	1	4600	LDA3	LDA4	1500.0	50	230	300	FR2	2	R1002P
1418.816	1.6	852732	WORD	n/a	wordpools/wordpool_EN.txt	MAIL	1	1	14	[0, 0, 0]	n/a	1	1	4600	LDA3	LDA4	1500.0	50	230	300	FR2	2	R1002P
1421.367	1.6	854007	WORD	n/a	wordpools/wordpool_EN.txt	CROWN	2	0	14	[0, 0, 0]	n/a	1	1	4600	LDA3	LDA4	1500.0	50	230	300	FR2	2	R1002P
1423.95	1.6	855299	WORD	n/a	wordpools/wordpool_EN.txt	MAZE	3	1	14	[0, 0, 0]	n/a	0	1	0	n/a	n/a	0.0	0	0	0	FR2	2	R1002P
1426.535	1.6	856591	WORD	n/a	wordpools/wordpool_EN.txt	BAG	4	0	14	[0, 0, 0]	n/a	0	1	0	n/a	n/a	0.0	0	0	0	FR2	2	R1002P
1428.864	4.6	857756	STIM_ON	n/a	n/a	n/a	-999	0	14	[0, 0, 0]	n/a	1	1	4600	LDA3	LDA4	1500.0	50	230	300	FR2	2	R1002P
1429.068	1.6	857858	WORD	n/a	wordpools/wordpool_EN.txt	COIN	5	1	14	[0, 0, 0]	n/a	1	1	4600	LDA3	LDA4	1500.0	50	230	300	FR2	2	R1002P
1431.586	1.6	859117	WORD	n/a	wordpools/wordpool_EN.txt	BALL	6	0	14	[0, 0, 0]	n/a	1	1	4600	LDA3	LDA4	1500.0	50	230	300	FR2	2	R1002P
1434.152	1.6	860400	WORD	n/a	wordpools/wordpool_EN.txt	CLAY	7	0	14	[0, 0, 0]	n/a	0	1	0	n/a	n/a	0.0	0	0	0	FR2	2	R1002P
1436.736	1.6	861691	WORD	n/a	wordpools/wordpool_EN.txt	BAT	8	0	14	[0, 0, 0]	n/a	0	1	0	n/a	n/a	0.0	0	0	0	FR2	2	R1002P
1439.049	4.6	862848	STIM_ON	n/a	n/a	n/a	-999	0	14	[0, 0, 0]	n/a	1	1	4600	LDA3	LDA4	1500.0	50	230	300	FR2	2	R1002P
1439.253	1.6	862950	WORD	n/a	wordpools/wordpool_EN.txt	TOOL	9	0	14	[0, 0, 0]	n/a	1	1	4600	LDA3	LDA4	1500.0	50	230	300	FR2	2	R1002P
1441.82	1.6	864233	WORD	n/a	wordpools/wordpool_EN.txt	DOG	10	0	14	[0, 0, 0]	n/a	1	1	4600	LDA3	LDA4	1500.0	50	230	300	FR2	2	R1002P
1444.355	1.6	865501	WORD	n/a	wordpools/wordpool_EN.txt	HOOF	11	0	14	[0, 0, 0]	n/a	0	1	0	n/a	n/a	0.0	0	0	0	FR2	2	R1002P
1446.854	1.6	866750	WORD	n/a	wordpools/wordpool_EN.txt	FLEA	12	0	14	[0, 0, 0]	n/a	0	1	0	n/a	n/a	0.0	0	0	0	FR2	2	R1002P
1448.455	0.001	867551	DISTRACT_START	n/a	n/a	n/a	-999	0	14	[0, 0, 0]	n/a	0	1	0	n/a	n/a	0.0	0	0	0	FR2	2	R1002P
1448.456	0.016	867551	START	n/a	n/a	n/a	-999	0	14	[-999, -999, -999]	n/a	0	1	0	n/a	n/a	0.0	0	0	0	FR2	2	R1002P
1448.472	4.65	867559	PROB	4.63	n/a	n/a	-999	0	14	[9, 7, 7]	23	0	1	0	n/a	n/a	0.0	0	0	0	FR2	2	R1002P
1453.122	10.42	869884	PROB	10.397	n/a	n/a	-999	0	14	[4, 8, 9]	21	0	1	0	n/a	n/a	0.0	0	0	0	FR2	2	R1002P
1463.542	10.135	875094	PROB	10.135	n/a	n/a	-999	0	14	[8, 7, 5]	20	0	1	0	n/a	n/a	0.0	0	0	0	FR2	2	R1002P
1473.677	0.016	880161	STOP	n/a	n/a	n/a	-999	0	14	[-999, -999, -999]	n/a	0	1	0	n/a	n/a	0.0	0	0	0	FR2	2	R1002P
1473.693	1.201	880169	DISTRACT_END	n/a	n/a	n/a	-999	0	14	[0, 0, 0]	n/a	0	1	0	n/a	n/a	0.0	0	0	0	FR2	2	R1002P
1474.894	2.627	880769	REC_START	n/a	n/a	n/a	-999	0	14	[0, 0, 0]	n/a	0	1	0	n/a	n/a	0.0	0	0	0	FR2	2	R1002P
1477.521	7.342	882083	REC_WORD	2.627	n/a	MAIL	1	1	14	[0, 0, 0]	n/a	0	1	0	n/a	n/a	0.0	0	0	0	FR2	2	R1002P
1484.863	4.308	885754	REC_WORD	9.969	n/a	MAZE	3	1	14	[0, 0, 0]	n/a	0	1	0	n/a	n/a	0.0	0	0	0	FR2	2	R1002P
1489.171	6.903	887908	REC_WORD	14.277	n/a	MAP	-999	0	14	[0, 0, 0]	n/a	0	1	0	n/a	n/a	0.0	0	0	0	FR2	2	R1002P
1496.074	1.23	891359	REC_WORD_VV	21.18	n/a	<>	-999	0	14	[0, 0, 0]	n/a	0	1	0	n/a	n/a	0.0	0	0	0	FR2	2	R1002P
1497.304	7.602	891974	REC_WORD	22.41	n/a	COIN	5	1	14	[0, 0, 0]	n/a	0	1	0	n/a	n/a	0.0	0	0	0	FR2	2	R1002P
1504.906	2.31	895775	REC_END	n/a	n/a	n/a	-999	0	14	[0, 0, 0]	n/a	0	1	0	n/a	n/a	0.0	0	0	0	FR2	2	R1002P
1507.216	0.0	896930	TRIAL	n/a	n/a	n/a	-999	0	15	[0, 0, 0]	n/a	0	1	0	n/a	n/a	0.0	0	0	0	FR2	2	R1002P
1507.216	10.0	896930	COUNTDOWN_START	n/a	n/a	n/a	-999	0	15	[0, 0, 0]	n/a	0	1	0	n/a	n/a	0.0	0	0	0	FR2	2	R1002P
1517.644	0.007	902143	COUNTDOWN_END	n/a	n/a	n/a	-999	0	15	[0, 0, 0]	n/a	0	1	0	n/a	n/a	0.0	0	0	0	FR2	2	R1002P
1517.651	1.6	902147	ORIENT	n/a	n/a	n/a	-999	0	15	[0, 0, 0]	n/a	0	1	0	n/a	n/a	0.0	0	0	0	FR2	2	R1002P
1520.251	1.6	903447	WORD	n/a	wordpools/wordpool_EN.txt	FACE	1	0	15	[0, 0, 0]	n/a	0	1	0	n/a	n/a	0.0	0	0	0	FR2	2	R1002P
1522.869	1.6	904756	WORD	n/a	wordpools/wordpool_EN.txt	GUARD	2	0	15	[0, 0, 0]	n/a	0	1	0	n/a	n/a	0.0	0	0	0	FR2	2	R1002P
1525.041	4.6	905842	STIM_ON	n/a	n/a	n/a	-999	0	15	[0, 0, 0]	n/a	1	1	4600	LDA3	LDA4	1500.0	50	230	300	FR2	2	R1002P
1525.252	1.6	905947	WORD	n/a	wordpools/wordpool_EN.txt	STEAK	3	1	15	[0, 0, 0]	n/a	1	1	4600	LDA3	LDA4	1500.0	50	230	300	FR2	2	R1002P
1527.853	1.6	907247	WORD	n/a	wordpools/wordpool_EN.txt	FLAME	4	1	15	[0, 0, 0]	n/a	1	1	4600	LDA3	LDA4	1500.0	50	230	300	FR2	2	R1002P
1530.321	1.6	908481	WORD	n/a	wordpools/wordpool_EN.txt	VASE	5	1	15	[0, 0, 0]	n/a	0	1	0	n/a	n/a	0.0	0	0	0	FR2	2	R1002P
1532.771	1.6	909706	WORD	n/a	wordpools/wordpool_EN.txt	TEA	6	0	15	[0, 0, 0]	n/a	0	1	0	n/a	n/a	0.0	0	0	0	FR2	2	R1002P
1535.004	4.6	910823	STIM_ON	n/a	n/a	n/a	-999	0	15	[0, 0, 0]	n/a	1	1	4600	LDA3	LDA4	1500.0	50	230	300	FR2	2	R1002P
1535.221	1.6	910931	WORD	n/a	wordpools/wordpool_EN.txt	COUCH	7	0	15	[0, 0, 0]	n/a	1	1	4600	LDA3	LDA4	1500.0	50	230	300	FR2	2	R1002P
1537.821	1.6	912231	WORD	n/a	wordpools/wordpool_EN.txt	BOY	8	1	15	[0, 0, 0]	n/a	1	1	4600	LDA3	LDA4	1500.0	50	230	300	FR2	2	R1002P
1540.222	1.6	913432	WORD	n/a	wordpools/wordpool_EN.txt	ARM	9	1	15	[0, 0, 0]	n/a	0	1	0	n/a	n/a	0.0	0	0	0	FR2	2	R1002P
1542.772	1.6	914707	WORD	n/a	wordpools/wordpool_EN.txt	STOOL	10	0	15	[0, 0, 0]	n/a	0	1	0	n/a	n/a	0.0	0	0	0	FR2	2	R1002P
1545.112	4.6	915876	STIM_ON	n/a	n/a	n/a	-999	0	15	[0, 0, 0]	n/a	1	1	4600	LDA3	LDA4	1500.0	50	230	300	FR2	2	R1002P
1545.324	1.6	915982	WORD	n/a	wordpools/wordpool_EN.txt	CAKE	11	0	15	[0, 0, 0]	n/a	1	1	4600	LDA3	LDA4	1500.0	50	230	300	FR2	2	R1002P
1547.857	1.6	917249	WORD	n/a	wordpools/wordpool_EN.txt	WHALE	12	0	15	[0, 0, 0]	n/a	1	1	4600	LDA3	LDA4	1500.0	50	230	300	FR2	2	R1002P
1549.458	0.001	918049	DISTRACT_START	n/a	n/a	n/a	-999	0	15	[0, 0, 0]	n/a	1	1	4600	LDA3	LDA4	1500.0	50	230	300	FR2	2	R1002P
1549.459	0.016	918050	START	n/a	n/a	n/a	-999	0	15	[-999, -999, -999]	n/a	0	1	0	n/a	n/a	0.0	0	0	0	FR2	2	R1002P
1549.475	3.699	918058	PROB	3.666	n/a	n/a	-999	0	15	[3, 8, 1]	12	0	1	0	n/a	n/a	0.0	0	0	0	FR2	2	R1002P
1553.174	3.651	919907	PROB	3.624	n/a	n/a	-999	0	15	[2, 4, 1]	7	0	1	0	n/a	n/a	0.0	0	0	0	FR2	2	R1002P
1556.825	3.602	921733	PROB	3.567	n/a	n/a	-999	0	15	[3, 7, 8]	18	0	1	0	n/a	n/a	0.0	0	0	0	FR2	2	R1002P
1560.427	4.15	923534	PROB	4.123	n/a	n/a	-999	0	15	[6, 5, 3]	14	0	1	0	n/a	n/a	0.0	0	0	0	FR2	2	R1002P
1564.577	4.567	925608	PROB	4.533	n/a	n/a	-999	0	15	[7, 8, 8]	23	0	1	0	n/a	n/a	0.0	0	0	0	FR2	2	R1002P
1569.144	9.709	927892	PROB	9.709	n/a	n/a	-999	0	15	[7, 9, 8]	24	0	1	0	n/a	n/a	0.0	0	0	0	FR2	2	R1002P
1578.853	0.01	932746	STOP	n/a	n/a	n/a	-999	0	15	[-999, -999, -999]	n/a	0	1	0	n/a	n/a	0.0	0	0	0	FR2	2	R1002P
1578.863	1.134	932751	DISTRACT_END	n/a	n/a	n/a	-999	0	15	[0, 0, 0]	n/a	0	1	0	n/a	n/a	0.0	0	0	0	FR2	2	R1002P
1579.997	1.522	933318	REC_START	n/a	n/a	n/a	-999	0	15	[0, 0, 0]	n/a	0	1	0	n/a	n/a	0.0	0	0	0	FR2	2	R1002P
1581.519	1.255	934079	REC_WORD	1.522	n/a	ARM	9	1	15	[0, 0, 0]	n/a	0	1	0	n/a	n/a	0.0	0	0	0	FR2	2	R1002P
1582.774	1.972	934706	REC_WORD	2.777	n/a	STEAK	3	1	15	[0, 0, 0]	n/a	0	1	0	n/a	n/a	0.0	0	0	0	FR2	2	R1002P
1584.746	2.47	935692	REC_WORD	4.749	n/a	FLAME	4	1	15	[0, 0, 0]	n/a	0	1	0	n/a	n/a	0.0	0	0	0	FR2	2	R1002P
1587.216	4.557	936927	REC_WORD	7.219	n/a	BOY	8	1	15	[0, 0, 0]	n/a	0	1	0	n/a	n/a	0.0	0	0	0	FR2	2	R1002P
1591.773	18.236	939206	REC_WORD	11.776	n/a	VASE	5	1	15	[0, 0, 0]	n/a	0	1	0	n/a	n/a	0.0	0	0	0	FR2	2	R1002P
1610.009	2.043	948323	REC_END	n/a	n/a	n/a	-999	0	15	[0, 0, 0]	n/a	0	1	0	n/a	n/a	0.0	0	0	0	FR2	2	R1002P
1612.052	0.0	949345	TRIAL	n/a	n/a	n/a	-999	0	16	[0, 0, 0]	n/a	0	0	0	n/a	n/a	0.0	0	0	0	FR2	2	R1002P
1612.052	10.0	949345	COUNTDOWN_START	n/a	n/a	n/a	-999	0	16	[0, 0, 0]	n/a	0	0	0	n/a	n/a	0.0	0	0	0	FR2	2	R1002P
1622.48	0.008	954558	COUNTDOWN_END	n/a	n/a	n/a	-999	0	16	[0, 0, 0]	n/a	0	0	0	n/a	n/a	0.0	0	0	0	FR2	2	R1002P
1622.488	1.6	954562	ORIENT	n/a	n/a	n/a	-999	0	16	[0, 0, 0]	n/a	0	0	0	n/a	n/a	0.0	0	0	0	FR2	2	R1002P
1624.888	1.6	955762	WORD	n/a	wordpools/wordpool_EN.txt	TOAST	1	0	16	[0, 0, 0]	n/a	0	0	0	n/a	n/a	0.0	0	0	0	FR2	2	R1002P
1627.272	1.6	956954	WORD	n/a	wordpools/wordpool_EN.txt	TRASH	2	1	16	[0, 0, 0]	n/a	0	0	0	n/a	n/a	0.0	0	0	0	FR2	2	R1002P
1629.789	1.6	958213	WORD	n/a	wordpools/wordpool_EN.txt	ELF	3	1	16	[0, 0, 0]	n/a	0	0	0	n/a	n/a	0.0	0	0	0	FR2	2	R1002P
1632.374	1.6	959505	WORD	n/a	wordpools/wordpool_EN.txt	TENT	4	0	16	[0, 0, 0]	n/a	0	0	0	n/a	n/a	0.0	0	0	0	FR2	2	R1002P
1634.956	1.6	960796	WORD	n/a	wordpools/wordpool_EN.txt	CUP	5	1	16	[0, 0, 0]	n/a	0	0	0	n/a	n/a	0.0	0	0	0	FR2	2	R1002P
1637.391	1.6	962013	WORD	n/a	wordpools/wordpool_EN.txt	FOOT	6	1	16	[0, 0, 0]	n/a	0	0	0	n/a	n/a	0.0	0	0	0	FR2	2	R1002P
1639.791	1.6	963213	WORD	n/a	wordpools/wordpool_EN.txt	CORN	7	0	16	[0, 0, 0]	n/a	0	0	0	n/a	n/a	0.0	0	0	0	FR2	2	R1002P
1642.309	1.6	964472	WORD	n/a	wordpools/wordpool_EN.txt	SPRING	8	1	16	[0, 0, 0]	n/a	0	0	0	n/a	n/a	0.0	0	0	0	FR2	2	R1002P
1644.692	1.6	965664	WORD	n/a	wordpools/wordpool_EN.txt	SOUP	9	0	16	[0, 0, 0]	n/a	0	0	0	n/a	n/a	0.0	0	0	0	FR2	2	R1002P
1647.259	1.6	966947	WORD	n/a	wordpools/wordpool_EN.txt	TRUCK	10	0	16	[0, 0, 0]	n/a	0	0	0	n/a	n/a	0.0	0	0	0	FR2	2	R1002P
1649.776	1.6	968206	WORD	n/a	wordpools/wordpool_EN.txt	LAND	11	0	16	[0, 0, 0]	n/a	0	0	0	n/a	n/a	0.0	0	0	0	FR2	2	R1002P
1652.293	1.6	969464	WORD	n/a	wordpools/wordpool_EN.txt	BOWL	12	1	16	[0, 0, 0]	n/a	0	0	0	n/a	n/a	0.0	0	0	0	FR2	2	R1002P
1653.91	0.001	970272	DISTRACT_START	n/a	n/a	n/a	-999	0	16	[0, 0, 0]	n/a	0	0	0	n/a	n/a	0.0	0	0	0	FR2	2	R1002P
1653.911	0.016	970273	START	n/a	n/a	n/a	-999	0	16	[-999, -999, -999]	n/a	0	0	0	n/a	n/a	0.0	0	0	0	FR2	2	R1002P
1653.927	3.334	970281	PROB	3.303	n/a	n/a	-999	0	16	[7, 3, 1]	11	0	0	0	n/a	n/a	0.0	0	0	0	FR2	2	R1002P
1657.261	3.235	971948	PROB	3.21	n/a	n/a	-999	0	16	[5, 1, 4]	10	0	0	0	n/a	n/a	0.0	0	0	0	FR2	2	R1002P
1660.496	5.583	973565	PROB	5.557	n/a	n/a	-999	0	16	[5, 2, 6]	13	0	0	0	n/a	n/a	0.0	0	0	0	FR2	2	R1002P
1666.079	5.118	976357	PROB	5.087	n/a	n/a	-999	0	16	[5, 6, 4]	15	0	0	0	n/a	n/a	0.0	0	0	0	FR2	2	R1002P
1671.197	3.489	978916	PROB	3.489	n/a	n/a	-999	0	16	[3, 8, 8]	19	0	0	0	n/a	n/a	0.0	0	0	0	FR2	2	R1002P
1674.686	0.011	980660	STOP	n/a	n/a	n/a	-999	0	16	[-999, -999, -999]	n/a	0	0	0	n/a	n/a	0.0	0	0	0	FR2	2	R1002P
1674.697	1.168	980665	DISTRACT_END	n/a	n/a	n/a	-999	0	16	[0, 0, 0]	n/a	0	0	0	n/a	n/a	0.0	0	0	0	FR2	2	R1002P
1675.865	1.335	981249	REC_START	n/a	n/a	n/a	-999	0	16	[0, 0, 0]	n/a	0	0	0	n/a	n/a	0.0	0	0	0	FR2	2	R1002P
1677.2	1.235	981917	REC_WORD	1.335	n/a	ELF	3	1	16	[0, 0, 0]	n/a	0	0	0	n/a	n/a	0.0	0	0	0	FR2	2	R1002P
1678.435	1.304	982534	REC_WORD	2.57	n/a	CUP	5	1	16	[0, 0, 0]	n/a	0	0	0	n/a	n/a	0.0	0	0	0	FR2	2	R1002P
1679.739	1.617	983186	REC_WORD	3.874	n/a	BOWL	12	1	16	[0, 0, 0]	n/a	0	0	0	n/a	n/a	0.0	0	0	0	FR2	2	R1002P
1681.356	6.87	983995	REC_WORD	5.491	n/a	TRASH	2	1	16	[0, 0, 0]	n/a	0	0	0	n/a	n/a	0.0	0	0	0	FR2	2	R1002P
1688.226	6.627	987430	REC_WORD	12.361	n/a	FOOT	6	1	16	[0, 0, 0]	n/a	0	0	0	n/a	n/a	0.0	0	0	0	FR2	2	R1002P
1694.853	11.024	990743	REC_WORD	18.988	n/a	SPRING	8	1	16	[0, 0, 0]	n/a	0	0	0	n/a	n/a	0.0	0	0	0	FR2	2	R1002P
1705.877	2.127	996255	REC_END	n/a	n/a	n/a	-999	0	16	[0, 0, 0]	n/a	0	0	0	n/a	n/a	0.0	0	0	0	FR2	2	R1002P
1708.004	0.0	997318	TRIAL	n/a	n/a	n/a	-999	0	17	[0, 0, 0]	n/a	0	1	0	n/a	n/a	0.0	0	0	0	FR2	2	R1002P
1708.004	10.0	997318	COUNTDOWN_START	n/a	n/a	n/a	-999	0	17	[0, 0, 0]	n/a	0	1	0	n/a	n/a	0.0	0	0	0	FR2	2	R1002P
1718.432	0.008	1002532	COUNTDOWN_END	n/a	n/a	n/a	-999	0	17	[0, 0, 0]	n/a	0	1	0	n/a	n/a	0.0	0	0	0	FR2	2	R1002P
1718.44	1.6	1002536	ORIENT	n/a	n/a	n/a	-999	0	17	[0, 0, 0]	n/a	0	1	0	n/a	n/a	0.0	0	0	0	FR2	2	R1002P
1720.708	4.6	1003670	STIM_ON	n/a	n/a	n/a	-999	0	17	[0, 0, 0]	n/a	1	1	4600	LDA3	LDA4	1500.0	50	230	300	FR2	2	R1002P
1720.923	1.6	1003777	WORD	n/a	wordpools/wordpool_EN.txt	TRAIN	1	1	17	[0, 0, 0]	n/a	1	1	4600	LDA3	LDA4	1500.0	50	230	300	FR2	2	R1002P
1723.408	1.6	1005020	WORD	n/a	wordpools/wordpool_EN.txt	ZOO	2	1	17	[0, 0, 0]	n/a	1	1	4600	LDA3	LDA4	1500.0	50	230	300	FR2	2	R1002P
1725.79	1.6	1006211	WORD	n/a	wordpools/wordpool_EN.txt	STORM	3	1	17	[0, 0, 0]	n/a	0	1	0	n/a	n/a	0.0	0	0	0	FR2	2	R1002P
1728.29	1.6	1007460	WORD	n/a	wordpools/wordpool_EN.txt	JUDGE	4	0	17	[0, 0, 0]	n/a	0	1	0	n/a	n/a	0.0	0	0	0	FR2	2	R1002P
1730.659	4.6	1008645	STIM_ON	n/a	n/a	n/a	-999	0	17	[0, 0, 0]	n/a	1	1	4600	LDA3	LDA4	1500.0	50	230	300	FR2	2	R1002P
1730.875	1.6	1008753	WORD	n/a	wordpools/wordpool_EN.txt	GOLD	5	0	17	[0, 0, 0]	n/a	1	1	4600	LDA3	LDA4	1500.0	50	230	300	FR2	2	R1002P
1733.459	1.6	1010045	WORD	n/a	wordpools/wordpool_EN.txt	BED	6	0	17	[0, 0, 0]	n/a	1	1	4600	LDA3	LDA4	1500.0	50	230	300	FR2	2	R1002P
1736.076	1.6	1011353	WORD	n/a	wordpools/wordpool_EN.txt	SHIRT	7	0	17	[0, 0, 0]	n/a	0	1	0	n/a	n/a	0.0	0	0	0	FR2	2	R1002P
1738.494	1.6	1012562	WORD	n/a	wordpools/wordpool_EN.txt	SAIL	8	0	17	[0, 0, 0]	n/a	0	1	0	n/a	n/a	0.0	0	0	0	FR2	2	R1002P
1740.906	4.6	1013768	STIM_ON	n/a	n/a	n/a	-999	0	17	[0, 0, 0]	n/a	1	1	4600	LDA3	LDA4	1500.0	50	230	300	FR2	2	R1002P
1741.11	1.6	1013870	WORD	n/a	wordpools/wordpool_EN.txt	CHIEF	9	1	17	[0, 0, 0]	n/a	1	1	4600	LDA3	LDA4	1500.0	50	230	300	FR2	2	R1002P
1743.66	1.6	1015145	WORD	n/a	wordpools/wordpool_EN.txt	CAPE	10	1	17	[0, 0, 0]	n/a	1	1	4600	LDA3	LDA4	1500.0	50	230	300	FR2	2	R1002P
1746.161	1.6	1016395	WORD	n/a	wordpools/wordpool_EN.txt	BEAR	11	0	17	[0, 0, 0]	n/a	0	1	0	n/a	n/a	0.0	0	0	0	FR2	2	R1002P
1748.745	1.6	1017687	WORD	n/a	wordpools/wordpool_EN.txt	WAND	12	0	17	[0, 0, 0]	n/a	0	1	0	n/a	n/a	0.0	0	0	0	FR2	2	R1002P
1750.363	0.0	1018496	DISTRACT_START	n/a	n/a	n/a	-999	0	17	[0, 0, 0]	n/a	0	1	0	n/a	n/a	0.0	0	0	0	FR2	2	R1002P
1750.363	0.016	1018496	START	n/a	n/a	n/a	-999	0	17	[-999, -999, -999]	n/a	0	1	0	n/a	n/a	0.0	0	0	0	FR2	2	R1002P
1750.379	4.7	1018504	PROB	4.667	n/a	n/a	-999	0	17	[2, 1, 7]	10	0	1	0	n/a	n/a	0.0	0	0	0	FR2	2	R1002P
1755.079	3.884	1020854	PROB	3.854	n/a	n/a	-999	0	17	[4, 8, 6]	18	0	1	0	n/a	n/a	0.0	0	0	0	FR2	2	R1002P
1758.963	4.369	1022796	PROB	4.347	n/a	n/a	-999	0	17	[5, 9, 6]	20	0	1	0	n/a	n/a	0.0	0	0	0	FR2	2	R1002P
1763.332	3.866	1024980	PROB	3.833	n/a	n/a	-999	0	17	[1, 9, 3]	13	0	1	0	n/a	n/a	0.0	0	0	0	FR2	2	R1002P
1767.198	3.864	1026913	PROB	3.864	n/a	n/a	-999	0	17	[5, 1, 8]	14	0	1	0	n/a	n/a	0.0	0	0	0	FR2	2	R1002P
1771.062	0.003	1028845	STOP	n/a	n/a	n/a	-999	0	17	[-999, -999, -999]	n/a	0	1	0	n/a	n/a	0.0	0	0	0	FR2	2	R1002P
1771.065	1.185	1028847	DISTRACT_END	n/a	n/a	n/a	-999	0	17	[0, 0, 0]	n/a	0	1	0	n/a	n/a	0.0	0	0	0	FR2	2	R1002P
1772.25	1.632	1029439	REC_START	n/a	n/a	n/a	-999	0	17	[0, 0, 0]	n/a	0	1	0	n/a	n/a	0.0	0	0	0	FR2	2	R1002P
1773.882	1.488	1030255	REC_WORD	1.632	n/a	TRAIN	1	1	17	[0, 0, 0]	n/a	0	1	0	n/a	n/a	0.0	0	0	0	FR2	2	R1002P
1775.37	1.498	1030999	REC_WORD	3.12	n/a	ZOO	2	1	17	[0, 0, 0]	n/a	0	1	0	n/a	n/a	0.0	0	0	0	FR2	2	R1002P
1776.868	1.765	1031748	REC_WORD	4.618	n/a	CHIEF	9	1	17	[0, 0, 0]	n/a	0	1	0	n/a	n/a	0.0	0	0	0	FR2	2	R1002P
1778.633	2.338	1032631	REC_WORD	6.383	n/a	CAPE	10	1	17	[0, 0, 0]	n/a	0	1	0	n/a	n/a	0.0	0	0	0	FR2	2	R1002P
1780.971	21.291	1033799	REC_WORD	8.721	n/a	STORM	3	1	17	[0, 0, 0]	n/a	0	1	0	n/a	n/a	0.0	0	0	0	FR2	2	R1002P
1802.262	1.776	1044444	REC_END	n/a	n/a	n/a	-999	0	17	[0, 0, 0]	n/a	0	1	0	n/a	n/a	0.0	0	0	0	FR2	2	R1002P
1804.038	10.0	1045332	COUNTDOWN_START	n/a	n/a	n/a	-999	0	18	[0, 0, 0]	n/a	0	1	0	n/a	n/a	0.0	0	0	0	FR2	2	R1002P
1804.039	10.427	1045333	TRIAL	n/a	n/a	n/a	-999	0	18	[0, 0, 0]	n/a	0	1	0	n/a	n/a	0.0	0	0	0	FR2	2	R1002P
1814.466	0.009	1050546	COUNTDOWN_END	n/a	n/a	n/a	-999	0	18	[0, 0, 0]	n/a	0	1	0	n/a	n/a	0.0	0	0	0	FR2	2	R1002P
1814.475	1.6	1050551	ORIENT	n/a	n/a	n/a	-999	0	18	[0, 0, 0]	n/a	0	1	0	n/a	n/a	0.0	0	0	0	FR2	2	R1002P
1816.874	4.6	1051750	STIM_ON	n/a	n/a	n/a	-999	0	18	[0, 0, 0]	n/a	1	1	4600	LDA3	LDA4	1500.0	50	230	300	FR2	2	R1002P
1817.091	1.6	1051859	WORD	n/a	wordpools/wordpool_EN.txt	CAVE	1	1	18	[0, 0, 0]	n/a	1	1	4600	LDA3	LDA4	1500.0	50	230	300	FR2	2	R1002P
1819.675	1.6	1053150	WORD	n/a	wordpools/wordpool_EN.txt	THREAD	2	0	18	[0, 0, 0]	n/a	1	1	4600	LDA3	LDA4	1500.0	50	230	300	FR2	2	R1002P
1822.275	1.6	1054450	WORD	n/a	wordpools/wordpool_EN.txt	EEL	3	1	18	[0, 0, 0]	n/a	0	1	0	n/a	n/a	0.0	0	0	0	FR2	2	R1002P
1824.692	1.6	1055659	WORD	n/a	wordpools/wordpool_EN.txt	BRIDGE	4	0	18	[0, 0, 0]	n/a	0	1	0	n/a	n/a	0.0	0	0	0	FR2	2	R1002P
1827.089	4.6	1056857	STIM_ON	n/a	n/a	n/a	-999	0	18	[0, 0, 0]	n/a	1	1	4600	LDA3	LDA4	1500.0	50	230	300	FR2	2	R1002P
1827.293	1.6	1056959	WORD	n/a	wordpools/wordpool_EN.txt	PRINCE	5	0	18	[0, 0, 0]	n/a	1	1	4600	LDA3	LDA4	1500.0	50	230	300	FR2	2	R1002P
1829.927	1.6	1058276	WORD	n/a	wordpools/wordpool_EN.txt	CLOUD	6	0	18	[0, 0, 0]	n/a	1	1	4600	LDA3	LDA4	1500.0	50	230	300	FR2	2	R1002P
1832.445	1.6	1059535	WORD	n/a	wordpools/wordpool_EN.txt	SHIELD	7	0	18	[0, 0, 0]	n/a	0	1	0	n/a	n/a	0.0	0	0	0	FR2	2	R1002P
1835.044	1.6	1060835	WORD	n/a	wordpools/wordpool_EN.txt	STONE	8	1	18	[0, 0, 0]	n/a	0	1	0	n/a	n/a	0.0	0	0	0	FR2	2	R1002P
1837.227	4.6	1061926	STIM_ON	n/a	n/a	n/a	-999	0	18	[0, 0, 0]	n/a	1	1	4600	LDA3	LDA4	1500.0	50	230	300	FR2	2	R1002P
1837.429	1.6	1062027	WORD	n/a	wordpools/wordpool_EN.txt	BOAT	9	1	18	[0, 0, 0]	n/a	1	1	4600	LDA3	LDA4	1500.0	50	230	300	FR2	2	R1002P
1839.828	1.6	1063226	WORD	n/a	wordpools/wordpool_EN.txt	SQUARE	10	0	18	[0, 0, 0]	n/a	1	1	4600	LDA3	LDA4	1500.0	50	230	300	FR2	2	R1002P
1842.262	1.6	1064443	WORD	n/a	wordpools/wordpool_EN.txt	WAVE	11	1	18	[0, 0, 0]	n/a	0	1	0	n/a	n/a	0.0	0	0	0	FR2	2	R1002P
1844.863	1.6	1065744	WORD	n/a	wordpools/wordpool_EN.txt	FLAG	12	1	18	[0, 0, 0]	n/a	0	1	0	n/a	n/a	0.0	0	0	0	FR2	2	R1002P
1846.481	0.001	1066553	DISTRACT_START	n/a	n/a	n/a	-999	0	18	[0, 0, 0]	n/a	0	1	0	n/a	n/a	0.0	0	0	0	FR2	2	R1002P
1846.482	0.015	1066553	START	n/a	n/a	n/a	-999	0	18	[-999, -999, -999]	n/a	0	1	0	n/a	n/a	0.0	0	0	0	FR2	2	R1002P
1846.497	4.784	1066561	PROB	4.757	n/a	n/a	-999	0	18	[9, 8, 8]	27	0	1	0	n/a	n/a	0.0	0	0	0	FR2	2	R1002P
1851.281	4.717	1068953	PROB	4.692	n/a	n/a	-999	0	18	[3, 3, 4]	10	0	1	0	n/a	n/a	0.0	0	0	0	FR2	2	R1002P
1855.998	4.234	1071311	PROB	4.199	n/a	n/a	-999	0	18	[7, 8, 3]	18	0	1	0	n/a	n/a	0.0	0	0	0	FR2	2	R1002P
1860.232	2.868	1073428	PROB	2.846	n/a	n/a	-999	0	18	[6, 2, 1]	9	0	1	0	n/a	n/a	0.0	0	0	0	FR2	2	R1002P
1863.1	6.227	1074862	PROB	6.227	n/a	n/a	-999	0	18	[2, 4, 3]	9	0	1	0	n/a	n/a	0.0	0	0	0	FR2	2	R1002P
1869.327	0.008	1077975	STOP	n/a	n/a	n/a	-999	0	18	[-999, -999, -999]	n/a	0	1	0	n/a	n/a	0.0	0	0	0	FR2	2	R1002P
1869.335	1.217	1077979	DISTRACT_END	n/a	n/a	n/a	-999	0	18	[0, 0, 0]	n/a	0	1	0	n/a	n/a	0.0	0	0	0	FR2	2	R1002P
1870.552	1.527	1078588	REC_START	n/a	n/a	n/a	-999	0	18	[0, 0, 0]	n/a	0	1	0	n/a	n/a	0.0	0	0	0	FR2	2	R1002P
1872.079	1.3	1079351	REC_WORD	1.527	n/a	CAVE	1	1	18	[0, 0, 0]	n/a	0	1	0	n/a	n/a	0.0	0	0	0	FR2	2	R1002P
1873.379	1.839	1080001	REC_WORD	2.827	n/a	WAVE	11	1	18	[0, 0, 0]	n/a	0	1	0	n/a	n/a	0.0	0	0	0	FR2	2	R1002P
1875.218	2.266	1080920	REC_WORD	4.666	n/a	BOAT	9	1	18	[0, 0, 0]	n/a	0	1	0	n/a	n/a	0.0	0	0	0	FR2	2	R1002P
1877.484	2.765	1082053	REC_WORD	6.932	n/a	STONE	8	1	18	[0, 0, 0]	n/a	0	1	0	n/a	n/a	0.0	0	0	0	FR2	2	R1002P
1880.249	9.544	1083436	REC_WORD	9.697	n/a	FLAG	12	1	18	[0, 0, 0]	n/a	0	1	0	n/a	n/a	0.0	0	0	0	FR2	2	R1002P
1889.793	10.772	1088207	REC_WORD	19.241	n/a	EEL	3	1	18	[0, 0, 0]	n/a	0	1	0	n/a	n/a	0.0	0	0	0	FR2	2	R1002P
1900.565	2.026	1093593	REC_END	n/a	n/a	n/a	-999	0	18	[0, 0, 0]	n/a	0	1	0	n/a	n/a	0.0	0	0	0	FR2	2	R1002P
1902.591	10.0	1094606	COUNTDOWN_START	n/a	n/a	n/a	-999	0	19	[0, 0, 0]	n/a	0	1	0	n/a	n/a	0.0	0	0	0	FR2	2	R1002P
1902.592	10.427	1094607	TRIAL	n/a	n/a	n/a	-999	0	19	[0, 0, 0]	n/a	0	1	0	n/a	n/a	0.0	0	0	0	FR2	2	R1002P
1913.019	0.007	1099820	COUNTDOWN_END	n/a	n/a	n/a	-999	0	19	[0, 0, 0]	n/a	0	1	0	n/a	n/a	0.0	0	0	0	FR2	2	R1002P
1913.026	1.6	1099823	ORIENT	n/a	n/a	n/a	-999	0	19	[0, 0, 0]	n/a	0	1	0	n/a	n/a	0.0	0	0	0	FR2	2	R1002P
1915.46	1.6	1101040	WORD	n/a	wordpools/wordpool_EN.txt	EGG	1	1	19	[0, 0, 0]	n/a	0	1	0	n/a	n/a	0.0	0	0	0	FR2	2	R1002P
1917.843	1.6	1102232	WORD	n/a	wordpools/wordpool_EN.txt	HAWK	2	1	19	[0, 0, 0]	n/a	0	1	0	n/a	n/a	0.0	0	0	0	FR2	2	R1002P
1920.102	4.6	1103361	STIM_ON	n/a	n/a	n/a	-999	0	19	[0, 0, 0]	n/a	1	1	4600	LDA3	LDA4	1500.0	50	230	300	FR2	2	R1002P
1920.311	1.6	1103466	WORD	n/a	wordpools/wordpool_EN.txt	FOOD	3	0	19	[0, 0, 0]	n/a	1	1	4600	LDA3	LDA4	1500.0	50	230	300	FR2	2	R1002P
1922.744	1.6	1104682	WORD	n/a	wordpools/wordpool_EN.txt	FROG	4	1	19	[0, 0, 0]	n/a	1	1	4600	LDA3	LDA4	1500.0	50	230	300	FR2	2	R1002P
1925.111	1.6	1105866	WORD	n/a	wordpools/wordpool_EN.txt	BIRD	5	0	19	[0, 0, 0]	n/a	0	1	0	n/a	n/a	0.0	0	0	0	FR2	2	R1002P
1927.729	1.6	1107174	WORD	n/a	wordpools/wordpool_EN.txt	BRANCH	6	1	19	[0, 0, 0]	n/a	0	1	0	n/a	n/a	0.0	0	0	0	FR2	2	R1002P
1929.959	4.6	1108289	STIM_ON	n/a	n/a	n/a	-999	0	19	[0, 0, 0]	n/a	1	1	4600	LDA3	LDA4	1500.0	50	230	300	FR2	2	R1002P
1930.162	1.6	1108391	WORD	n/a	wordpools/wordpool_EN.txt	PIPE	7	1	19	[0, 0, 0]	n/a	1	1	4600	LDA3	LDA4	1500.0	50	230	300	FR2	2	R1002P
1932.663	1.6	1109641	WORD	n/a	wordpools/wordpool_EN.txt	SHELL	8	0	19	[0, 0, 0]	n/a	1	1	4600	LDA3	LDA4	1500.0	50	230	300	FR2	2	R1002P
1935.213	1.6	1110916	WORD	n/a	wordpools/wordpool_EN.txt	FOX	9	0	19	[0, 0, 0]	n/a	0	1	0	n/a	n/a	0.0	0	0	0	FR2	2	R1002P
1937.797	1.6	1112208	WORD	n/a	wordpools/wordpool_EN.txt	SEAL	10	0	19	[0, 0, 0]	n/a	0	1	0	n/a	n/a	0.0	0	0	0	FR2	2	R1002P
1940.082	4.6	1113351	STIM_ON	n/a	n/a	n/a	-999	0	19	[0, 0, 0]	n/a	1	1	4600	LDA3	LDA4	1500.0	50	230	300	FR2	2	R1002P
1940.297	1.6	1113458	WORD	n/a	wordpools/wordpool_EN.txt	PET	11	0	19	[0, 0, 0]	n/a	1	1	4600	LDA3	LDA4	1500.0	50	230	300	FR2	2	R1002P
1942.748	1.6	1114684	WORD	n/a	wordpools/wordpool_EN.txt	NEST	12	1	19	[0, 0, 0]	n/a	1	1	4600	LDA3	LDA4	1500.0	50	230	300	FR2	2	R1002P
1944.349	0.001	1115484	DISTRACT_START	n/a	n/a	n/a	-999	0	19	[0, 0, 0]	n/a	1	1	4600	LDA3	LDA4	1500.0	50	230	300	FR2	2	R1002P
1944.35	0.016	1115484	START	n/a	n/a	n/a	-999	0	19	[-999, -999, -999]	n/a	0	1	0	n/a	n/a	0.0	0	0	0	FR2	2	R1002P
1944.366	5.367	1115492	PROB	5.335	n/a	n/a	-999	0	19	[9, 6, 3]	18	0	1	0	n/a	n/a	0.0	0	0	0	FR2	2	R1002P
1949.733	5.217	1118176	PROB	5.192	n/a	n/a	-999	0	19	[2, 5, 1]	8	0	1	0	n/a	n/a	0.0	0	0	0	FR2	2	R1002P
1954.95	6.469	1120784	PROB	6.433	n/a	n/a	-999	0	19	[3, 9, 2]	14	0	1	0	n/a	n/a	0.0	0	0	0	FR2	2	R1002P
1961.419	4.267	1124019	PROB	4.267	n/a	n/a	-999	0	19	[3, 9, 6]	18	0	1	0	n/a	n/a	0.0	0	0	0	FR2	2	R1002P
1965.686	0.016	1126152	STOP	n/a	n/a	n/a	-999	0	19	[-999, -999, -999]	n/a	0	1	0	n/a	n/a	0.0	0	0	0	FR2	2	R1002P
1965.702	1.118	1126160	DISTRACT_END	n/a	n/a	n/a	-999	0	19	[0, 0, 0]	n/a	0	1	0	n/a	n/a	0.0	0	0	0	FR2	2	R1002P
1966.82	1.943	1126719	REC_START	n/a	n/a	n/a	-999	0	19	[0, 0, 0]	n/a	0	1	0	n/a	n/a	0.0	0	0	0	FR2	2	R1002P
1968.763	1.415	1127690	REC_WORD	1.943	n/a	HAWK	2	1	19	[0, 0, 0]	n/a	0	1	0	n/a	n/a	0.0	0	0	0	FR2	2	R1002P
1970.178	2.996	1128398	REC_WORD	3.358	n/a	EGG	1	1	19	[0, 0, 0]	n/a	0	1	0	n/a	n/a	0.0	0	0	0	FR2	2	R1002P
1973.174	1.524	1129896	REC_WORD	6.354	n/a	BRANCH	6	1	19	[0, 0, 0]	n/a	0	1	0	n/a	n/a	0.0	0	0	0	FR2	2	R1002P
1974.698	1.69	1130658	REC_WORD	7.878	n/a	PIPE	7	1	19	[0, 0, 0]	n/a	0	1	0	n/a	n/a	0.0	0	0	0	FR2	2	R1002P
1976.388	12.151	1131503	REC_WORD	9.568	n/a	FROG	4	1	19	[0, 0, 0]	n/a	0	1	0	n/a	n/a	0.0	0	0	0	FR2	2	R1002P
1988.539	8.292	1137578	REC_WORD	21.719	n/a	NEST	12	1	19	[0, 0, 0]	n/a	0	1	0	n/a	n/a	0.0	0	0	0	FR2	2	R1002P
1996.831	2.044	1141724	REC_END	n/a	n/a	n/a	-999	0	19	[0, 0, 0]	n/a	0	1	0	n/a	n/a	0.0	0	0	0	FR2	2	R1002P
1998.875	0.0	1142745	TRIAL	n/a	n/a	n/a	-999	0	20	[0, 0, 0]	n/a	0	0	0	n/a	n/a	0.0	0	0	0	FR2	2	R1002P
1998.875	10.0	1142745	COUNTDOWN_START	n/a	n/a	n/a	-999	0	20	[0, 0, 0]	n/a	0	0	0	n/a	n/a	0.0	0	0	0	FR2	2	R1002P
2009.303	0.008	1147959	COUNTDOWN_END	n/a	n/a	n/a	-999	0	20	[0, 0, 0]	n/a	0	0	0	n/a	n/a	0.0	0	0	0	FR2	2	R1002P
2009.311	1.6	1147963	ORIENT	n/a	n/a	n/a	-999	0	20	[0, 0, 0]	n/a	0	0	0	n/a	n/a	0.0	0	0	0	FR2	2	R1002P
2011.761	1.6	1149188	WORD	n/a	wordpools/wordpool_EN.txt	SMILE	1	1	20	[0, 0, 0]	n/a	0	0	0	n/a	n/a	0.0	0	0	0	FR2	2	R1002P
2014.312	1.6	1150464	WORD	n/a	wordpools/wordpool_EN.txt	SNOW	2	0	20	[0, 0, 0]	n/a	0	0	0	n/a	n/a	0.0	0	0	0	FR2	2	R1002P
2016.762	1.6	1151688	WORD	n/a	wordpools/wordpool_EN.txt	MUD	3	1	20	[0, 0, 0]	n/a	0	0	0	n/a	n/a	0.0	0	0	0	FR2	2	R1002P
2019.229	1.6	1152922	WORD	n/a	wordpools/wordpool_EN.txt	SKI	4	1	20	[0, 0, 0]	n/a	0	0	0	n/a	n/a	0.0	0	0	0	FR2	2	R1002P
2021.796	1.6	1154205	WORD	n/a	wordpools/wordpool_EN.txt	FOG	5	1	20	[0, 0, 0]	n/a	0	0	0	n/a	n/a	0.0	0	0	0	FR2	2	R1002P
2024.213	1.6	1155414	WORD	n/a	wordpools/wordpool_EN.txt	PIN	6	0	20	[0, 0, 0]	n/a	0	0	0	n/a	n/a	0.0	0	0	0	FR2	2	R1002P
2026.615	1.6	1156615	WORD	n/a	wordpools/wordpool_EN.txt	HOLE	7	0	20	[0, 0, 0]	n/a	0	0	0	n/a	n/a	0.0	0	0	0	FR2	2	R1002P
2029.064	1.6	1157839	WORD	n/a	wordpools/wordpool_EN.txt	GEESE	8	0	20	[0, 0, 0]	n/a	0	0	0	n/a	n/a	0.0	0	0	0	FR2	2	R1002P
2031.582	1.6	1159098	WORD	n/a	wordpools/wordpool_EN.txt	VEST	9	1	20	[0, 0, 0]	n/a	0	0	0	n/a	n/a	0.0	0	0	0	FR2	2	R1002P
2034.065	1.6	1160340	WORD	n/a	wordpools/wordpool_EN.txt	HOSE	10	0	20	[0, 0, 0]	n/a	0	0	0	n/a	n/a	0.0	0	0	0	FR2	2	R1002P
2036.682	1.6	1161648	WORD	n/a	wordpools/wordpool_EN.txt	SHARK	11	0	20	[0, 0, 0]	n/a	0	0	0	n/a	n/a	0.0	0	0	0	FR2	2	R1002P
2039.183	1.6	1162898	WORD	n/a	wordpools/wordpool_EN.txt	FOAM	12	0	20	[0, 0, 0]	n/a	0	0	0	n/a	n/a	0.0	0	0	0	FR2	2	R1002P
2040.8	0.001	1163707	DISTRACT_START	n/a	n/a	n/a	-999	0	20	[0, 0, 0]	n/a	0	0	0	n/a	n/a	0.0	0	0	0	FR2	2	R1002P
2040.801	0.015	1163707	START	n/a	n/a	n/a	-999	0	20	[-999, -999, -999]	n/a	0	0	0	n/a	n/a	0.0	0	0	0	FR2	2	R1002P
2040.816	5.301	1163715	PROB	5.27	n/a	n/a	-999	0	20	[8, 7, 6]	21	0	0	0	n/a	n/a	0.0	0	0	0	FR2	2	R1002P
2046.117	4.785	1166365	PROB	4.761	n/a	n/a	-999	0	20	[8, 9, 2]	19	0	0	0	n/a	n/a	0.0	0	0	0	FR2	2	R1002P
2050.902	11.472	1168758	PROB	11.472	n/a	n/a	-999	0	20	[2, 4, 7]	13	0	0	0	n/a	n/a	0.0	0	0	0	FR2	2	R1002P
2062.374	0.014	1174493	STOP	n/a	n/a	n/a	-999	0	20	[-999, -999, -999]	n/a	0	0	0	n/a	n/a	0.0	0	0	0	FR2	2	R1002P
2062.388	1.151	1174500	DISTRACT_END	n/a	n/a	n/a	-999	0	20	[0, 0, 0]	n/a	0	0	0	n/a	n/a	0.0	0	0	0	FR2	2	R1002P
2063.539	1.811	1175076	REC_START	n/a	n/a	n/a	-999	0	20	[0, 0, 0]	n/a	0	0	0	n/a	n/a	0.0	0	0	0	FR2	2	R1002P
2065.35	1.766	1175981	REC_WORD	1.811	n/a	SKI	4	1	20	[0, 0, 0]	n/a	0	0	0	n/a	n/a	0.0	0	0	0	FR2	2	R1002P
2067.116	2.592	1176864	REC_WORD	3.577	n/a	VEST	9	1	20	[0, 0, 0]	n/a	0	0	0	n/a	n/a	0.0	0	0	0	FR2	2	R1002P
2069.708	4.468	1178160	REC_WORD_VV	6.169	n/a	<>	-999	0	20	[0, 0, 0]	n/a	0	0	0	n/a	n/a	0.0	0	0	0	FR2	2	R1002P
2074.176	0.629	1180394	REC_WORD	10.637	n/a	FOG	5	1	20	[0, 0, 0]	n/a	0	0	0	n/a	n/a	0.0	0	0	0	FR2	2	R1002P
2074.805	3.016	1180708	REC_WORD_VV	11.266	n/a	<>	-999	0	20	[0, 0, 0]	n/a	0	0	0	n/a	n/a	0.0	0	0	0	FR2	2	R1002P
2077.821	2.393	1182216	REC_WORD	14.282	n/a	SMILE	1	1	20	[0, 0, 0]	n/a	0	0	0	n/a	n/a	0.0	0	0	0	FR2	2	R1002P
2080.214	5.768	1183413	REC_WORD	16.675	n/a	MUD	3	1	20	[0, 0, 0]	n/a	0	0	0	n/a	n/a	0.0	0	0	0	FR2	2	R1002P
2085.982	7.569	1186297	REC_WORD	22.443	n/a	WHALE	-999	0	20	[0, 0, 0]	n/a	0	0	0	n/a	n/a	0.0	0	0	0	FR2	2	R1002P
2093.551	2.092	1190081	REC_END	n/a	n/a	n/a	-999	0	20	[0, 0, 0]	n/a	0	0	0	n/a	n/a	0.0	0	0	0	FR2	2	R1002P
2095.643	10.0	1191127	COUNTDOWN_START	n/a	n/a	n/a	-999	0	21	[0, 0, 0]	n/a	0	1	0	n/a	n/a	0.0	0	0	0	FR2	2	R1002P
2095.644	10.427	1191127	TRIAL	n/a	n/a	n/a	-999	0	21	[0, 0, 0]	n/a	0	1	0	n/a	n/a	0.0	0	0	0	FR2	2	R1002P
2106.071	0.008	1196341	COUNTDOWN_END	n/a	n/a	n/a	-999	0	21	[0, 0, 0]	n/a	0	1	0	n/a	n/a	0.0	0	0	0	FR2	2	R1002P
2106.079	1.6	1196345	ORIENT	n/a	n/a	n/a	-999	0	21	[0, 0, 0]	n/a	0	1	0	n/a	n/a	0.0	0	0	0	FR2	2	R1002P
2108.48	1.6	1197545	WORD	n/a	wordpools/wordpool_EN.txt	TOAD	1	0	21	[0, 0, 0]	n/a	0	1	0	n/a	n/a	0.0	0	0	0	FR2	2	R1002P
2110.996	1.6	1198803	WORD	n/a	wordpools/wordpool_EN.txt	TANK	2	1	21	[0, 0, 0]	n/a	0	1	0	n/a	n/a	0.0	0	0	0	FR2	2	R1002P
2113.254	4.6	1199932	STIM_ON	n/a	n/a	n/a	-999	0	21	[0, 0, 0]	n/a	1	1	4600	LDA3	LDA4	1500.0	50	230	300	FR2	2	R1002P
2113.464	1.6	1200037	WORD	n/a	wordpools/wordpool_EN.txt	WHEEL	3	1	21	[0, 0, 0]	n/a	1	1	4600	LDA3	LDA4	1500.0	50	230	300	FR2	2	R1002P
2116.064	1.6	1201337	WORD	n/a	wordpools/wordpool_EN.txt	POND	4	0	21	[0, 0, 0]	n/a	1	1	4600	LDA3	LDA4	1500.0	50	230	300	FR2	2	R1002P
2118.499	1.6	1202554	WORD	n/a	wordpools/wordpool_EN.txt	WORM	5	1	21	[0, 0, 0]	n/a	0	1	0	n/a	n/a	0.0	0	0	0	FR2	2	R1002P
2120.965	1.6	1203787	WORD	n/a	wordpools/wordpool_EN.txt	STORE	6	1	21	[0, 0, 0]	n/a	0	1	0	n/a	n/a	0.0	0	0	0	FR2	2	R1002P
2123.366	4.6	1204988	STIM_ON	n/a	n/a	n/a	-999	0	21	[0, 0, 0]	n/a	1	1	4600	LDA3	LDA4	1500.0	50	230	300	FR2	2	R1002P
2123.583	1.6	1205096	WORD	n/a	wordpools/wordpool_EN.txt	SPARK	7	0	21	[0, 0, 0]	n/a	1	1	4600	LDA3	LDA4	1500.0	50	230	300	FR2	2	R1002P
2125.983	1.6	1206296	WORD	n/a	wordpools/wordpool_EN.txt	SNAIL	8	1	21	[0, 0, 0]	n/a	1	1	4600	LDA3	LDA4	1500.0	50	230	300	FR2	2	R1002P
2128.517	1.6	1207563	WORD	n/a	wordpools/wordpool_EN.txt	STRING	9	0	21	[0, 0, 0]	n/a	0	1	0	n/a	n/a	0.0	0	0	0	FR2	2	R1002P
2131.05	1.6	1208829	WORD	n/a	wordpools/wordpool_EN.txt	CONE	10	0	21	[0, 0, 0]	n/a	0	1	0	n/a	n/a	0.0	0	0	0	FR2	2	R1002P
2133.38	4.6	1209994	STIM_ON	n/a	n/a	n/a	-999	0	21	[0, 0, 0]	n/a	1	1	4600	LDA3	LDA4	1500.0	50	230	300	FR2	2	R1002P
2133.585	1.6	1210097	WORD	n/a	wordpools/wordpool_EN.txt	PEA	11	0	21	[0, 0, 0]	n/a	1	1	4600	LDA3	LDA4	1500.0	50	230	300	FR2	2	R1002P
2135.967	1.6	1211288	WORD	n/a	wordpools/wordpool_EN.txt	STEAM	12	0	21	[0, 0, 0]	n/a	1	1	4600	LDA3	LDA4	1500.0	50	230	300	FR2	2	R1002P
2137.569	0.001	1212089	DISTRACT_START	n/a	n/a	n/a	-999	0	21	[0, 0, 0]	n/a	1	1	4600	LDA3	LDA4	1500.0	50	230	300	FR2	2	R1002P
2137.57	0.015	1212089	START	n/a	n/a	n/a	-999	0	21	[-999, -999, -999]	n/a	0	1	0	n/a	n/a	0.0	0	0	0	FR2	2	R1002P
2137.585	3.467	1212097	PROB	3.445	n/a	n/a	-999	0	21	[2, 1, 2]	5	0	1	0	n/a	n/a	0.0	0	0	0	FR2	2	R1002P
2141.052	3.252	1213830	PROB	3.218	n/a	n/a	-999	0	21	[7, 7, 5]	21	0	1	0	n/a	n/a	0.0	0	0	0	FR2	2	R1002P
2144.304	2.899	1215456	PROB	2.87	n/a	n/a	-999	0	21	[1, 9, 1]	11	0	1	0	n/a	n/a	0.0	0	0	0	FR2	2	R1002P
2147.203	4.568	1216905	PROB	4.546	n/a	n/a	-999	0	21	[9, 5, 3]	17	0	1	0	n/a	n/a	0.0	0	0	0	FR2	2	R1002P
2151.771	5.184	1219189	PROB	5.163	n/a	n/a	-999	0	21	[4, 7, 6]	17	0	1	0	n/a	n/a	0.0	0	0	0	FR2	2	R1002P
2156.955	4.403	1221781	PROB	4.403	n/a	n/a	-999	0	21	[2, 4, 9]	16	0	1	0	n/a	n/a	0.0	0	0	0	FR2	2	R1002P
2161.358	0.015	1223983	STOP	n/a	n/a	n/a	-999	0	21	[-999, -999, -999]	n/a	0	1	0	n/a	n/a	0.0	0	0	0	FR2	2	R1002P
2161.373	1.085	1223990	DISTRACT_END	n/a	n/a	n/a	-999	0	21	[0, 0, 0]	n/a	0	1	0	n/a	n/a	0.0	0	0	0	FR2	2	R1002P
2162.458	1.66	1224532	REC_START	n/a	n/a	n/a	-999	0	21	[0, 0, 0]	n/a	0	1	0	n/a	n/a	0.0	0	0	0	FR2	2	R1002P
2164.118	1.371	1225362	REC_WORD	1.66	n/a	TANK	2	1	21	[0, 0, 0]	n/a	0	1	0	n/a	n/a	0.0	0	0	0	FR2	2	R1002P
2165.489	2.059	1226048	REC_WORD	3.031	n/a	WHEEL	3	1	21	[0, 0, 0]	n/a	0	1	0	n/a	n/a	0.0	0	0	0	FR2	2	R1002P
2167.548	2.077	1227077	REC_WORD	5.09	n/a	STORE	6	1	21	[0, 0, 0]	n/a	0	1	0	n/a	n/a	0.0	0	0	0	FR2	2	R1002P
2169.625	1.708	1228116	REC_WORD	7.167	n/a	WORM	5	1	21	[0, 0, 0]	n/a	0	1	0	n/a	n/a	0.0	0	0	0	FR2	2	R1002P
2171.333	21.136	1228970	REC_WORD	8.875	n/a	SNAIL	8	1	21	[0, 0, 0]	n/a	0	1	0	n/a	n/a	0.0	0	0	0	FR2	2	R1002P
2192.469	1.994	1239537	REC_END	n/a	n/a	n/a	-999	0	21	[0, 0, 0]	n/a	0	1	0	n/a	n/a	0.0	0	0	0	FR2	2	R1002P
2194.463	0.0	1240534	TRIAL	n/a	n/a	n/a	-999	0	22	[0, 0, 0]	n/a	0	1	0	n/a	n/a	0.0	0	0	0	FR2	2	R1002P
2194.463	10.0	1240534	COUNTDOWN_START	n/a	n/a	n/a	-999	0	22	[0, 0, 0]	n/a	0	1	0	n/a	n/a	0.0	0	0	0	FR2	2	R1002P
2204.891	0.006	1245748	COUNTDOWN_END	n/a	n/a	n/a	-999	0	22	[0, 0, 0]	n/a	0	1	0	n/a	n/a	0.0	0	0	0	FR2	2	R1002P
2204.897	1.6	1245751	ORIENT	n/a	n/a	n/a	-999	0	22	[0, 0, 0]	n/a	0	1	0	n/a	n/a	0.0	0	0	0	FR2	2	R1002P
2207.14	4.6	1246872	STIM_ON	n/a	n/a	n/a	-999	0	22	[0, 0, 0]	n/a	1	1	4600	LDA3	LDA4	1500.0	50	230	300	FR2	2	R1002P
2207.349	1.6	1246977	WORD	n/a	wordpools/wordpool_EN.txt	TIE	1	1	22	[0, 0, 0]	n/a	1	1	4600	LDA3	LDA4	1500.0	50	230	300	FR2	2	R1002P
2209.832	1.6	1248218	WORD	n/a	wordpools/wordpool_EN.txt	MULE	2	1	22	[0, 0, 0]	n/a	1	1	4600	LDA3	LDA4	1500.0	50	230	300	FR2	2	R1002P
2212.3	1.6	1249452	WORD	n/a	wordpools/wordpool_EN.txt	FENCE	3	1	22	[0, 0, 0]	n/a	0	1	0	n/a	n/a	0.0	0	0	0	FR2	2	R1002P
2214.699	1.6	1250652	WORD	n/a	wordpools/wordpool_EN.txt	BLUSH	4	0	22	[0, 0, 0]	n/a	0	1	0	n/a	n/a	0.0	0	0	0	FR2	2	R1002P
2216.884	4.6	1251744	STIM_ON	n/a	n/a	n/a	-999	0	22	[0, 0, 0]	n/a	1	1	4600	LDA3	LDA4	1500.0	50	230	300	FR2	2	R1002P
2217.1	1.6	1251852	WORD	n/a	wordpools/wordpool_EN.txt	VAN	5	1	22	[0, 0, 0]	n/a	1	1	4600	LDA3	LDA4	1500.0	50	230	300	FR2	2	R1002P
2219.618	1.6	1253111	WORD	n/a	wordpools/wordpool_EN.txt	STREET	6	0	22	[0, 0, 0]	n/a	1	1	4600	LDA3	LDA4	1500.0	50	230	300	FR2	2	R1002P
2222.184	1.6	1254394	WORD	n/a	wordpools/wordpool_EN.txt	PURSE	7	1	22	[0, 0, 0]	n/a	0	1	0	n/a	n/a	0.0	0	0	0	FR2	2	R1002P
2224.684	1.6	1255644	WORD	n/a	wordpools/wordpool_EN.txt	DIME	8	0	22	[0, 0, 0]	n/a	0	1	0	n/a	n/a	0.0	0	0	0	FR2	2	R1002P
2227.054	4.6	1256829	STIM_ON	n/a	n/a	n/a	-999	0	22	[0, 0, 0]	n/a	1	1	4600	LDA3	LDA4	1500.0	50	230	300	FR2	2	R1002P
2227.268	1.6	1256936	WORD	n/a	wordpools/wordpool_EN.txt	HORN	9	0	22	[0, 0, 0]	n/a	1	1	4600	LDA3	LDA4	1500.0	50	230	300	FR2	2	R1002P
2229.852	1.6	1258228	WORD	n/a	wordpools/wordpool_EN.txt	DITCH	10	1	22	[0, 0, 0]	n/a	1	1	4600	LDA3	LDA4	1500.0	50	230	300	FR2	2	R1002P
2232.354	1.6	1259479	WORD	n/a	wordpools/wordpool_EN.txt	NOSE	11	0	22	[0, 0, 0]	n/a	0	1	0	n/a	n/a	0.0	0	0	0	FR2	2	R1002P
2234.97	1.6	1260786	WORD	n/a	wordpools/wordpool_EN.txt	DOLL	12	1	22	[0, 0, 0]	n/a	0	1	0	n/a	n/a	0.0	0	0	0	FR2	2	R1002P
2236.571	0.001	1261587	DISTRACT_START	n/a	n/a	n/a	-999	0	22	[0, 0, 0]	n/a	0	1	0	n/a	n/a	0.0	0	0	0	FR2	2	R1002P
2236.572	0.016	1261587	START	n/a	n/a	n/a	-999	0	22	[-999, -999, -999]	n/a	0	1	0	n/a	n/a	0.0	0	0	0	FR2	2	R1002P
2236.588	5.566	1261595	PROB	5.529	n/a	n/a	-999	0	22	[9, 7, 7]	23	0	1	0	n/a	n/a	0.0	0	0	0	FR2	2	R1002P
2242.154	3.968	1264378	PROB	3.939	n/a	n/a	-999	0	22	[7, 1, 7]	15	0	1	0	n/a	n/a	0.0	0	0	0	FR2	2	R1002P
2246.122	3.134	1266362	PROB	3.099	n/a	n/a	-999	0	22	[9, 5, 5]	19	0	1	0	n/a	n/a	0.0	0	0	0	FR2	2	R1002P
2249.256	3.268	1267929	PROB	3.247	n/a	n/a	-999	0	22	[6, 1, 2]	9	0	1	0	n/a	n/a	0.0	0	0	0	FR2	2	R1002P
2252.524	4.37	1269563	PROB	4.37	n/a	n/a	-999	0	22	[2, 5, 7]	14	0	1	0	n/a	n/a	0.0	0	0	0	FR2	2	R1002P
2256.894	0.013	1271748	STOP	n/a	n/a	n/a	-999	0	22	[-999, -999, -999]	n/a	0	1	0	n/a	n/a	0.0	0	0	0	FR2	2	R1002P
2256.907	1.101	1271754	DISTRACT_END	n/a	n/a	n/a	-999	0	22	[0, 0, 0]	n/a	0	1	0	n/a	n/a	0.0	0	0	0	FR2	2	R1002P
2258.008	1.411	1272305	REC_START	n/a	n/a	n/a	-999	0	22	[0, 0, 0]	n/a	0	1	0	n/a	n/a	0.0	0	0	0	FR2	2	R1002P
2259.419	1.499	1273010	REC_WORD	1.411	n/a	VAN	5	1	22	[0, 0, 0]	n/a	0	1	0	n/a	n/a	0.0	0	0	0	FR2	2	R1002P
2260.918	1.335	1273760	REC_WORD	2.91	n/a	PURSE	7	1	22	[0, 0, 0]	n/a	0	1	0	n/a	n/a	0.0	0	0	0	FR2	2	R1002P
2262.253	1.765	1274427	REC_WORD	4.245	n/a	FENCE	3	1	22	[0, 0, 0]	n/a	0	1	0	n/a	n/a	0.0	0	0	0	FR2	2	R1002P
2264.018	1.505	1275310	REC_WORD	6.01	n/a	TIE	1	1	22	[0, 0, 0]	n/a	0	1	0	n/a	n/a	0.0	0	0	0	FR2	2	R1002P
2265.523	1.643	1276062	REC_WORD	7.515	n/a	MULE	2	1	22	[0, 0, 0]	n/a	0	1	0	n/a	n/a	0.0	0	0	0	FR2	2	R1002P
2267.166	17.323	1276884	REC_WORD	9.158	n/a	DOLL	12	1	22	[0, 0, 0]	n/a	0	1	0	n/a	n/a	0.0	0	0	0	FR2	2	R1002P
2284.489	3.531	1285545	REC_WORD	26.481	n/a	DITCH	10	1	22	[0, 0, 0]	n/a	0	1	0	n/a	n/a	0.0	0	0	0	FR2	2	R1002P
2288.02	1.893	1287310	REC_END	n/a	n/a	n/a	-999	0	22	[0, 0, 0]	n/a	0	1	0	n/a	n/a	0.0	0	0	0	FR2	2	R1002P
2289.913	10.0	1288256	COUNTDOWN_START	n/a	n/a	n/a	-999	0	23	[0, 0, 0]	n/a	0	1	0	n/a	n/a	0.0	0	0	0	FR2	2	R1002P
2289.914	10.427	1288257	TRIAL	n/a	n/a	n/a	-999	0	23	[0, 0, 0]	n/a	0	1	0	n/a	n/a	0.0	0	0	0	FR2	2	R1002P
2300.341	0.009	1293470	COUNTDOWN_END	n/a	n/a	n/a	-999	0	23	[0, 0, 0]	n/a	0	1	0	n/a	n/a	0.0	0	0	0	FR2	2	R1002P
2300.35	1.6	1293475	ORIENT	n/a	n/a	n/a	-999	0	23	[0, 0, 0]	n/a	0	1	0	n/a	n/a	0.0	0	0	0	FR2	2	R1002P
2302.933	1.6	1294766	WORD	n/a	wordpools/wordpool_EN.txt	CHIN	1	1	23	[0, 0, 0]	n/a	0	1	0	n/a	n/a	0.0	0	0	0	FR2	2	R1002P
2305.417	1.6	1296008	WORD	n/a	wordpools/wordpool_EN.txt	SKY	2	1	23	[0, 0, 0]	n/a	0	1	0	n/a	n/a	0.0	0	0	0	FR2	2	R1002P
2307.708	4.6	1297153	STIM_ON	n/a	n/a	n/a	-999	0	23	[0, 0, 0]	n/a	1	1	4600	LDA3	LDA4	1500.0	50	230	300	FR2	2	R1002P
2307.917	1.6	1297258	WORD	n/a	wordpools/wordpool_EN.txt	HEN	3	0	23	[0, 0, 0]	n/a	1	1	4600	LDA3	LDA4	1500.0	50	230	300	FR2	2	R1002P
2310.335	1.6	1298467	WORD	n/a	wordpools/wordpool_EN.txt	BEAK	4	1	23	[0, 0, 0]	n/a	1	1	4600	LDA3	LDA4	1500.0	50	230	300	FR2	2	R1002P
2312.918	1.6	1299758	WORD	n/a	wordpools/wordpool_EN.txt	RAT	5	1	23	[0, 0, 0]	n/a	0	1	0	n/a	n/a	0.0	0	0	0	FR2	2	R1002P
2315.402	1.6	1301000	WORD	n/a	wordpools/wordpool_EN.txt	WALL	6	0	23	[0, 0, 0]	n/a	0	1	0	n/a	n/a	0.0	0	0	0	FR2	2	R1002P
2317.739	4.6	1302169	STIM_ON	n/a	n/a	n/a	-999	0	23	[0, 0, 0]	n/a	1	1	4600	LDA3	LDA4	1500.0	50	230	300	FR2	2	R1002P
2317.952	1.6	1302275	WORD	n/a	wordpools/wordpool_EN.txt	WOLF	7	0	23	[0, 0, 0]	n/a	1	1	4600	LDA3	LDA4	1500.0	50	230	300	FR2	2	R1002P
2320.47	1.6	1303534	WORD	n/a	wordpools/wordpool_EN.txt	BRICK	8	0	23	[0, 0, 0]	n/a	1	1	4600	LDA3	LDA4	1500.0	50	230	300	FR2	2	R1002P
2323.086	1.6	1304842	WORD	n/a	wordpools/wordpool_EN.txt	RUG	9	0	23	[0, 0, 0]	n/a	0	1	0	n/a	n/a	0.0	0	0	0	FR2	2	R1002P
2325.653	1.6	1306125	WORD	n/a	wordpools/wordpool_EN.txt	WEB	10	0	23	[0, 0, 0]	n/a	0	1	0	n/a	n/a	0.0	0	0	0	FR2	2	R1002P
2328.056	4.6	1307327	STIM_ON	n/a	n/a	n/a	-999	0	23	[0, 0, 0]	n/a	1	1	4600	LDA3	LDA4	1500.0	50	230	300	FR2	2	R1002P
2328.271	1.6	1307434	WORD	n/a	wordpools/wordpool_EN.txt	DUCK	11	0	23	[0, 0, 0]	n/a	1	1	4600	LDA3	LDA4	1500.0	50	230	300	FR2	2	R1002P
2330.671	1.6	1308634	WORD	n/a	wordpools/wordpool_EN.txt	GRASS	12	0	23	[0, 0, 0]	n/a	1	1	4600	LDA3	LDA4	1500.0	50	230	300	FR2	2	R1002P
2332.288	0.001	1309443	DISTRACT_START	n/a	n/a	n/a	-999	0	23	[0, 0, 0]	n/a	1	1	4600	LDA3	LDA4	1500.0	50	230	300	FR2	2	R1002P
2332.289	0.017	1309443	START	n/a	n/a	n/a	-999	0	23	[-999, -999, -999]	n/a	0	1	0	n/a	n/a	0.0	0	0	0	FR2	2	R1002P
2332.306	4.916	1309452	PROB	4.891	n/a	n/a	-999	0	23	[1, 6, 9]	16	0	1	0	n/a	n/a	0.0	0	0	0	FR2	2	R1002P
2337.222	5.751	1311910	PROB	5.727	n/a	n/a	-999	0	23	[7, 5, 6]	18	0	1	0	n/a	n/a	0.0	0	0	0	FR2	2	R1002P
2342.973	4.402	1314785	PROB	4.378	n/a	n/a	-999	0	23	[1, 7, 4]	12	0	1	0	n/a	n/a	0.0	0	0	0	FR2	2	R1002P
2347.375	4.85	1316986	PROB	4.816	n/a	n/a	-999	0	23	[2, 7, 4]	13	0	1	0	n/a	n/a	0.0	0	0	0	FR2	2	R1002P
2352.225	5.206	1319411	PROB	5.206	n/a	n/a	-999	0	23	[7, 4, 5]	16	0	1	0	n/a	n/a	0.0	0	0	0	FR2	2	R1002P
2357.431	0.013	1322014	STOP	n/a	n/a	n/a	-999	0	23	[-999, -999, -999]	n/a	0	1	0	n/a	n/a	0.0	0	0	0	FR2	2	R1002P
2357.444	1.134	1322020	DISTRACT_END	n/a	n/a	n/a	-999	0	23	[0, 0, 0]	n/a	0	1	0	n/a	n/a	0.0	0	0	0	FR2	2	R1002P
2358.578	1.169	1322587	REC_START	n/a	n/a	n/a	-999	0	23	[0, 0, 0]	n/a	0	1	0	n/a	n/a	0.0	0	0	0	FR2	2	R1002P
2359.747	0.969	1323172	REC_WORD	1.169	n/a	CHIN	1	1	23	[0, 0, 0]	n/a	0	1	0	n/a	n/a	0.0	0	0	0	FR2	2	R1002P
2360.716	1.67	1323656	REC_WORD	2.138	n/a	SKY	2	1	23	[0, 0, 0]	n/a	0	1	0	n/a	n/a	0.0	0	0	0	FR2	2	R1002P
2362.386	5.649	1324491	REC_WORD	3.808	n/a	RAT	5	1	23	[0, 0, 0]	n/a	0	1	0	n/a	n/a	0.0	0	0	0	FR2	2	R1002P
2368.035	18.943	1327315	REC_WORD_VV	9.457	n/a	<>	-999	0	23	[0, 0, 0]	n/a	0	1	0	n/a	n/a	0.0	0	0	0	FR2	2	R1002P
2386.978	1.612	1336786	REC_WORD	28.4	n/a	BEAK	4	1	23	[0, 0, 0]	n/a	0	1	0	n/a	n/a	0.0	0	0	0	FR2	2	R1002P
2388.59	2.309	1337592	REC_END	n/a	n/a	n/a	-999	0	23	[0, 0, 0]	n/a	0	1	0	n/a	n/a	0.0	0	0	0	FR2	2	R1002P
2390.899	10.0	1338747	COUNTDOWN_START	n/a	n/a	n/a	-999	0	24	[0, 0, 0]	n/a	0	1	0	n/a	n/a	0.0	0	0	0	FR2	2	R1002P
2390.899	10.428	1338747	TRIAL	n/a	n/a	n/a	-999	0	24	[0, 0, 0]	n/a	0	1	0	n/a	n/a	0.0	0	0	0	FR2	2	R1002P
2401.327	0.008	1343960	COUNTDOWN_END	n/a	n/a	n/a	-999	0	24	[0, 0, 0]	n/a	0	1	0	n/a	n/a	0.0	0	0	0	FR2	2	R1002P
2401.335	1.6	1343964	ORIENT	n/a	n/a	n/a	-999	0	24	[0, 0, 0]	n/a	0	1	0	n/a	n/a	0.0	0	0	0	FR2	2	R1002P
2403.818	1.6	1345206	WORD	n/a	wordpools/wordpool_EN.txt	PIT	1	0	24	[0, 0, 0]	n/a	0	1	0	n/a	n/a	0.0	0	0	0	FR2	2	R1002P
2406.42	1.6	1346507	WORD	n/a	wordpools/wordpool_EN.txt	LIP	2	1	24	[0, 0, 0]	n/a	0	1	0	n/a	n/a	0.0	0	0	0	FR2	2	R1002P
2408.649	4.6	1347621	STIM_ON	n/a	n/a	n/a	-999	0	24	[0, 0, 0]	n/a	1	1	4600	LDA3	LDA4	1500.0	50	230	300	FR2	2	R1002P
2408.869	1.6	1347731	WORD	n/a	wordpools/wordpool_EN.txt	PLANE	3	1	24	[0, 0, 0]	n/a	1	1	4600	LDA3	LDA4	1500.0	50	230	300	FR2	2	R1002P
2411.37	1.6	1348982	WORD	n/a	wordpools/wordpool_EN.txt	RAIN	4	1	24	[0, 0, 0]	n/a	1	1	4600	LDA3	LDA4	1500.0	50	230	300	FR2	2	R1002P
2413.903	1.6	1350248	WORD	n/a	wordpools/wordpool_EN.txt	FILM	5	0	24	[0, 0, 0]	n/a	0	1	0	n/a	n/a	0.0	0	0	0	FR2	2	R1002P
2416.505	1.6	1351549	WORD	n/a	wordpools/wordpool_EN.txt	BLOOM	6	0	24	[0, 0, 0]	n/a	0	1	0	n/a	n/a	0.0	0	0	0	FR2	2	R1002P
2418.715	4.6	1352654	STIM_ON	n/a	n/a	n/a	-999	0	24	[0, 0, 0]	n/a	1	1	4600	LDA3	LDA4	1500.0	50	230	300	FR2	2	R1002P
2418.921	1.6	1352757	WORD	n/a	wordpools/wordpool_EN.txt	BEAN	7	0	24	[0, 0, 0]	n/a	1	1	4600	LDA3	LDA4	1500.0	50	230	300	FR2	2	R1002P
2421.306	1.6	1353949	WORD	n/a	wordpools/wordpool_EN.txt	APE	8	1	24	[0, 0, 0]	n/a	1	1	4600	LDA3	LDA4	1500.0	50	230	300	FR2	2	R1002P
2423.905	1.6	1355249	WORD	n/a	wordpools/wordpool_EN.txt	JET	9	1	24	[0, 0, 0]	n/a	0	1	0	n/a	n/a	0.0	0	0	0	FR2	2	R1002P
2426.407	1.6	1356500	WORD	n/a	wordpools/wordpool_EN.txt	SPONGE	10	0	24	[0, 0, 0]	n/a	0	1	0	n/a	n/a	0.0	0	0	0	FR2	2	R1002P
2428.802	4.6	1357697	STIM_ON	n/a	n/a	n/a	-999	0	24	[0, 0, 0]	n/a	1	1	4600	LDA3	LDA4	1500.0	50	230	300	FR2	2	R1002P
2429.006	1.6	1357799	WORD	n/a	wordpools/wordpool_EN.txt	WING	11	0	24	[0, 0, 0]	n/a	1	1	4600	LDA3	LDA4	1500.0	50	230	300	FR2	2	R1002P
2431.408	1.6	1359000	WORD	n/a	wordpools/wordpool_EN.txt	STAIR	12	0	24	[0, 0, 0]	n/a	1	1	4600	LDA3	LDA4	1500.0	50	230	300	FR2	2	R1002P
2433.024	0.001	1359808	DISTRACT_START	n/a	n/a	n/a	-999	0	24	[0, 0, 0]	n/a	1	1	4600	LDA3	LDA4	1500.0	50	230	300	FR2	2	R1002P
2433.025	0.015	1359809	START	n/a	n/a	n/a	-999	0	24	[-999, -999, -999]	n/a	0	1	0	n/a	n/a	0.0	0	0	0	FR2	2	R1002P
2433.04	5.018	1359816	PROB	4.997	n/a	n/a	-999	0	24	[7, 4, 6]	17	0	1	0	n/a	n/a	0.0	0	0	0	FR2	2	R1002P
2438.058	7.469	1362325	PROB	7.444	n/a	n/a	-999	0	24	[8, 6, 5]	19	0	1	0	n/a	n/a	0.0	0	0	0	FR2	2	R1002P
2445.527	3.25	1366059	PROB	3.215	n/a	n/a	-999	0	24	[8, 1, 9]	18	0	1	0	n/a	n/a	0.0	0	0	0	FR2	2	R1002P
2448.777	5.988	1367684	PROB	5.988	n/a	n/a	-999	0	24	[9, 6, 2]	17	0	1	0	n/a	n/a	0.0	0	0	0	FR2	2	R1002P
2454.765	0.013	1370678	STOP	n/a	n/a	n/a	-999	0	24	[-999, -999, -999]	n/a	0	1	0	n/a	n/a	0.0	0	0	0	FR2	2	R1002P
2454.778	1.101	1370684	DISTRACT_END	n/a	n/a	n/a	-999	0	24	[0, 0, 0]	n/a	0	1	0	n/a	n/a	0.0	0	0	0	FR2	2	R1002P
2455.879	1.604	1371235	REC_START	n/a	n/a	n/a	-999	0	24	[0, 0, 0]	n/a	0	1	0	n/a	n/a	0.0	0	0	0	FR2	2	R1002P
2457.483	1.29	1372037	REC_WORD	1.604	n/a	PLANE	3	1	24	[0, 0, 0]	n/a	0	1	0	n/a	n/a	0.0	0	0	0	FR2	2	R1002P
2458.773	1.238	1372682	REC_WORD	2.894	n/a	JET	9	1	24	[0, 0, 0]	n/a	0	1	0	n/a	n/a	0.0	0	0	0	FR2	2	R1002P
2460.011	1.619	1373301	REC_WORD	4.132	n/a	RAIN	4	1	24	[0, 0, 0]	n/a	0	1	0	n/a	n/a	0.0	0	0	0	FR2	2	R1002P
2461.63	9.207	1374110	REC_WORD	5.751	n/a	LIP	2	1	24	[0, 0, 0]	n/a	0	1	0	n/a	n/a	0.0	0	0	0	FR2	2	R1002P
2470.837	15.054	1378713	REC_WORD	14.958	n/a	APE	8	1	24	[0, 0, 0]	n/a	0	1	0	n/a	n/a	0.0	0	0	0	FR2	2	R1002P
2485.891	2.06	1386240	REC_END	n/a	n/a	n/a	-999	0	24	[0, 0, 0]	n/a	0	1	0	n/a	n/a	0.0	0	0	0	FR2	2	R1002P
2487.951	0.0	1387270	TRIAL	n/a	n/a	n/a	-999	0	25	[0, 0, 0]	n/a	0	1	0	n/a	n/a	0.0	0	0	0	FR2	2	R1002P
2487.951	10.0	1387270	COUNTDOWN_START	n/a	n/a	n/a	-999	0	25	[0, 0, 0]	n/a	0	1	0	n/a	n/a	0.0	0	0	0	FR2	2	R1002P
2498.379	0.008	1392484	COUNTDOWN_END	n/a	n/a	n/a	-999	0	25	[0, 0, 0]	n/a	0	1	0	n/a	n/a	0.0	0	0	0	FR2	2	R1002P
2498.387	1.6	1392488	ORIENT	n/a	n/a	n/a	-999	0	25	[0, 0, 0]	n/a	0	1	0	n/a	n/a	0.0	0	0	0	FR2	2	R1002P
2500.665	4.6	1393627	STIM_ON	n/a	n/a	n/a	-999	0	25	[0, 0, 0]	n/a	1	1	4600	LDA3	LDA4	1500.0	50	230	300	FR2	2	R1002P
2500.887	1.6	1393738	WORD	n/a	wordpools/wordpool_EN.txt	CHALK	1	0	25	[0, 0, 0]	n/a	1	1	4600	LDA3	LDA4	1500.0	50	230	300	FR2	2	R1002P
2503.388	1.6	1394988	WORD	n/a	wordpools/wordpool_EN.txt	DESK	2	1	25	[0, 0, 0]	n/a	1	1	4600	LDA3	LDA4	1500.0	50	230	300	FR2	2	R1002P
2505.904	1.6	1396246	WORD	n/a	wordpools/wordpool_EN.txt	GLOVE	3	0	25	[0, 0, 0]	n/a	0	1	0	n/a	n/a	0.0	0	0	0	FR2	2	R1002P
2508.506	1.6	1397547	WORD	n/a	wordpools/wordpool_EN.txt	BATH	4	0	25	[0, 0, 0]	n/a	0	1	0	n/a	n/a	0.0	0	0	0	FR2	2	R1002P
2510.76	4.6	1398674	STIM_ON	n/a	n/a	n/a	-999	0	25	[0, 0, 0]	n/a	1	1	4600	LDA3	LDA4	1500.0	50	230	300	FR2	2	R1002P
2510.972	1.6	1398780	WORD	n/a	wordpools/wordpool_EN.txt	PHONE	5	1	25	[0, 0, 0]	n/a	1	1	4600	LDA3	LDA4	1500.0	50	230	300	FR2	2	R1002P
2513.357	1.6	1399972	WORD	n/a	wordpools/wordpool_EN.txt	BUSH	6	0	25	[0, 0, 0]	n/a	1	1	4600	LDA3	LDA4	1500.0	50	230	300	FR2	2	R1002P
2515.756	1.6	1401172	WORD	n/a	wordpools/wordpool_EN.txt	CRANE	7	1	25	[0, 0, 0]	n/a	0	1	0	n/a	n/a	0.0	0	0	0	FR2	2	R1002P
2518.256	1.6	1402422	WORD	n/a	wordpools/wordpool_EN.txt	ROOF	8	0	25	[0, 0, 0]	n/a	0	1	0	n/a	n/a	0.0	0	0	0	FR2	2	R1002P
2520.436	4.6	1403512	STIM_ON	n/a	n/a	n/a	-999	0	25	[0, 0, 0]	n/a	1	1	4600	LDA3	LDA4	1500.0	50	230	300	FR2	2	R1002P
2520.64	1.6	1403614	WORD	n/a	wordpools/wordpool_EN.txt	HOOK	9	0	25	[0, 0, 0]	n/a	1	1	4600	LDA3	LDA4	1500.0	50	230	300	FR2	2	R1002P
2523.191	1.6	1404889	WORD	n/a	wordpools/wordpool_EN.txt	PARK	10	1	25	[0, 0, 0]	n/a	1	1	4600	LDA3	LDA4	1500.0	50	230	300	FR2	2	R1002P
2525.758	1.6	1406172	WORD	n/a	wordpools/wordpool_EN.txt	SLIME	11	1	25	[0, 0, 0]	n/a	0	1	0	n/a	n/a	0.0	0	0	0	FR2	2	R1002P
2528.192	1.6	1407389	WORD	n/a	wordpools/wordpool_EN.txt	CLOCK	12	0	25	[0, 0, 0]	n/a	0	1	0	n/a	n/a	0.0	0	0	0	FR2	2	R1002P
2529.809	0.001	1408198	DISTRACT_START	n/a	n/a	n/a	-999	0	25	[0, 0, 0]	n/a	0	1	0	n/a	n/a	0.0	0	0	0	FR2	2	R1002P
2529.81	0.015	1408198	START	n/a	n/a	n/a	-999	0	25	[-999, -999, -999]	n/a	0	1	0	n/a	n/a	0.0	0	0	0	FR2	2	R1002P
2529.825	4.185	1408206	PROB	4.157	n/a	n/a	-999	0	25	[2, 9, 7]	18	0	1	0	n/a	n/a	0.0	0	0	0	FR2	2	R1002P
2534.01	4.184	1410298	PROB	4.164	n/a	n/a	-999	0	25	[3, 8, 6]	17	0	1	0	n/a	n/a	0.0	0	0	0	FR2	2	R1002P
2538.194	2.883	1412390	PROB	2.86	n/a	n/a	-999	0	25	[1, 7, 1]	9	0	1	0	n/a	n/a	0.0	0	0	0	FR2	2	R1002P
2541.077	4.302	1413832	PROB	4.274	n/a	n/a	-999	0	25	[1, 2, 4]	7	0	1	0	n/a	n/a	0.0	0	0	0	FR2	2	R1002P
2545.379	4.627	1415982	PROB	4.627	n/a	n/a	-999	0	25	[5, 6, 4]	15	0	1	0	n/a	n/a	0.0	0	0	0	FR2	2	R1002P
2550.006	0.006	1418296	STOP	n/a	n/a	n/a	-999	0	25	[-999, -999, -999]	n/a	0	1	0	n/a	n/a	0.0	0	0	0	FR2	2	R1002P
2550.012	1.118	1418299	DISTRACT_END	n/a	n/a	n/a	-999	0	25	[0, 0, 0]	n/a	0	1	0	n/a	n/a	0.0	0	0	0	FR2	2	R1002P
2551.13	1.403	1418858	REC_START	n/a	n/a	n/a	-999	0	25	[0, 0, 0]	n/a	0	1	0	n/a	n/a	0.0	0	0	0	FR2	2	R1002P
2552.533	1.868	1419559	REC_WORD	1.403	n/a	CRANE	7	1	25	[0, 0, 0]	n/a	0	1	0	n/a	n/a	0.0	0	0	0	FR2	2	R1002P
2554.401	2.509	1420493	REC_WORD	3.271	n/a	PARK	10	1	25	[0, 0, 0]	n/a	0	1	0	n/a	n/a	0.0	0	0	0	FR2	2	R1002P
2556.91	2.137	1421748	REC_WORD	5.78	n/a	DESK	2	1	25	[0, 0, 0]	n/a	0	1	0	n/a	n/a	0.0	0	0	0	FR2	2	R1002P
2559.047	1.0	1422816	REC_WORD	7.917	n/a	SLIME	11	1	25	[0, 0, 0]	n/a	0	1	0	n/a	n/a	0.0	0	0	0	FR2	2	R1002P
