onset	duration	sample	trial_type	response_time	stim_file	item_name	serialpos	recalled	list	test	answer	stimulation	stim_list	stim_duration	anode_label	cathode_label	amplitude	pulse_freq	n_pulses	pulse_width	experiment	session	subject
0.0	13.867	394655	SESS_START	n/a	n/a	n/a	-999	0	-999	[0, 0, 0]	n/a	0	0	0	n/a	n/a	0.0	0	0	0	FR2	0	R1150J
13.867	10.0	408523	COUNTDOWN_START	n/a	n/a	n/a	-999	0	-999	[0, 0, 0]	n/a	0	0	0	n/a	n/a	0.0	0	0	0	FR2	0	R1150J
24.295	3.641	418951	COUNTDOWN_END	n/a	n/a	n/a	-999	0	-999	[0, 0, 0]	n/a	0	0	0	n/a	n/a	0.0	0	0	0	FR2	0	R1150J
27.936	1.6	422592	PRACTICE_WORD	n/a	n/a	TONGUE	1	0	-1	[0, 0, 0]	n/a	0	0	0	n/a	n/a	0.0	0	0	0	FR2	0	R1150J
30.471	1.6	425127	PRACTICE_WORD	n/a	n/a	ATTIC	2	0	-1	[0, 0, 0]	n/a	0	0	0	n/a	n/a	0.0	0	0	0	FR2	0	R1150J
33.021	1.6	427677	PRACTICE_WORD	n/a	n/a	WATCH	3	0	-1	[0, 0, 0]	n/a	0	0	0	n/a	n/a	0.0	0	0	0	FR2	0	R1150J
35.471	1.6	430127	PRACTICE_WORD	n/a	n/a	CHEST	4	0	-1	[0, 0, 0]	n/a	0	0	0	n/a	n/a	0.0	0	0	0	FR2	0	R1150J
38.088	1.6	432744	PRACTICE_WORD	n/a	n/a	IRON	5	0	-1	[0, 0, 0]	n/a	0	0	0	n/a	n/a	0.0	0	0	0	FR2	0	R1150J
40.589	1.6	435245	PRACTICE_WORD	n/a	n/a	COTTON	6	0	-1	[0, 0, 0]	n/a	0	0	0	n/a	n/a	0.0	0	0	0	FR2	0	R1150J
42.989	1.6	437645	PRACTICE_WORD	n/a	n/a	RING	7	0	-1	[0, 0, 0]	n/a	0	0	0	n/a	n/a	0.0	0	0	0	FR2	0	R1150J
45.539	1.6	440195	PRACTICE_WORD	n/a	n/a	BEAM	8	0	-1	[0, 0, 0]	n/a	0	0	0	n/a	n/a	0.0	0	0	0	FR2	0	R1150J
48.106	1.6	442762	PRACTICE_WORD	n/a	n/a	CAMEL	9	0	-1	[0, 0, 0]	n/a	0	0	0	n/a	n/a	0.0	0	0	0	FR2	0	R1150J
50.573	1.6	445229	PRACTICE_WORD	n/a	n/a	RHINO	10	0	-1	[0, 0, 0]	n/a	0	0	0	n/a	n/a	0.0	0	0	0	FR2	0	R1150J
53.023	1.6	447679	PRACTICE_WORD	n/a	n/a	FLOOD	11	0	-1	[0, 0, 0]	n/a	0	0	0	n/a	n/a	0.0	0	0	0	FR2	0	R1150J
55.457	1.6	450113	PRACTICE_WORD	n/a	n/a	WAGON	12	0	-1	[0, 0, 0]	n/a	0	0	0	n/a	n/a	0.0	0	0	0	FR2	0	R1150J
57.074	0.001	451730	PRACTICE_DISTRACT_START	n/a	n/a	n/a	-999	0	-1	[0, 0, 0]	n/a	0	0	0	n/a	n/a	0.0	0	0	0	FR2	0	R1150J
57.075	0.016	451731	START	n/a	n/a	n/a	-999	0	-1	[-999, -999, -999]	n/a	0	0	0	n/a	n/a	0.0	0	0	0	FR2	0	R1150J
57.091	2.984	451747	PROB	2.962	n/a	n/a	-999	0	-1	[8, 9, 1]	19	0	0	0	n/a	n/a	0.0	0	0	0	FR2	0	R1150J
60.075	2.467	454731	PROB	2.443	n/a	n/a	-999	0	-1	[3, 4, 1]	8	0	0	0	n/a	n/a	0.0	0	0	0	FR2	0	R1150J
62.542	3.7	457198	PROB	3.679	n/a	n/a	-999	0	-1	[5, 4, 7]	16	0	0	0	n/a	n/a	0.0	0	0	0	FR2	0	R1150J
66.242	3.367	460898	PROB	3.347	n/a	n/a	-999	0	-1	[2, 7, 5]	14	0	0	0	n/a	n/a	0.0	0	0	0	FR2	0	R1150J
69.609	2.45	464265	PROB	2.42	n/a	n/a	-999	0	-1	[1, 7, 2]	10	0	0	0	n/a	n/a	0.0	0	0	0	FR2	0	R1150J
72.059	2.484	466716	PROB	2.45	n/a	n/a	-999	0	-1	[7, 1, 2]	10	0	0	0	n/a	n/a	0.0	0	0	0	FR2	0	R1150J
74.543	3.589	469200	PROB	3.589	n/a	n/a	-999	0	-1	[7, 5, 2]	14	0	0	0	n/a	n/a	0.0	0	0	0	FR2	0	R1150J
78.132	0.011	472789	STOP	n/a	n/a	n/a	-999	0	-1	[-999, -999, -999]	n/a	0	0	0	n/a	n/a	0.0	0	0	0	FR2	0	R1150J
78.143	0.668	472800	PRACTICE_DISTRACT_END	n/a	n/a	n/a	-999	0	-1	[0, 0, 0]	n/a	0	0	0	n/a	n/a	0.0	0	0	0	FR2	0	R1150J
78.811	30.516	473468	PRACTICE_REC_START	n/a	n/a	n/a	-999	0	-1	[0, 0, 0]	n/a	0	0	0	n/a	n/a	0.0	0	0	0	FR2	0	R1150J
109.327	8.055	503984	PRACTICE_REC_END	n/a	n/a	n/a	-999	0	-1	[0, 0, 0]	n/a	0	0	0	n/a	n/a	0.0	0	0	0	FR2	0	R1150J
117.382	10.0	512039	COUNTDOWN_START	n/a	n/a	n/a	-999	0	1	[0, 0, 0]	n/a	0	0	0	n/a	n/a	0.0	0	0	0	FR2	0	R1150J
117.382	10.428	512039	TRIAL	n/a	n/a	n/a	-999	0	1	[0, 0, 0]	n/a	0	0	0	n/a	n/a	0.0	0	0	0	FR2	0	R1150J
127.81	0.005	522467	COUNTDOWN_END	n/a	n/a	n/a	-999	0	1	[0, 0, 0]	n/a	0	0	0	n/a	n/a	0.0	0	0	0	FR2	0	R1150J
127.815	1.6	522472	ORIENT	n/a	n/a	n/a	-999	0	1	[0, 0, 0]	n/a	0	0	0	n/a	n/a	0.0	0	0	0	FR2	0	R1150J
130.2	1.6	524857	WORD	n/a	wordpools/wordpool_EN.txt	AXE	1	1	1	[0, 0, 0]	n/a	0	0	0	n/a	n/a	0.0	0	0	0	FR2	0	R1150J
132.751	1.6	527408	WORD	n/a	wordpools/wordpool_EN.txt	OWL	2	1	1	[0, 0, 0]	n/a	0	0	0	n/a	n/a	0.0	0	0	0	FR2	0	R1150J
135.334	1.6	529991	WORD	n/a	wordpools/wordpool_EN.txt	GOAT	3	0	1	[0, 0, 0]	n/a	0	0	0	n/a	n/a	0.0	0	0	0	FR2	0	R1150J
137.883	1.6	532540	WORD	n/a	wordpools/wordpool_EN.txt	EAR	4	0	1	[0, 0, 0]	n/a	0	0	0	n/a	n/a	0.0	0	0	0	FR2	0	R1150J
140.418	1.6	535076	WORD	n/a	wordpools/wordpool_EN.txt	RAT	5	0	1	[0, 0, 0]	n/a	0	0	0	n/a	n/a	0.0	0	0	0	FR2	0	R1150J
143.002	1.6	537660	WORD	n/a	wordpools/wordpool_EN.txt	FORK	6	0	1	[0, 0, 0]	n/a	0	0	0	n/a	n/a	0.0	0	0	0	FR2	0	R1150J
145.602	1.6	540260	WORD	n/a	wordpools/wordpool_EN.txt	ROPE	7	0	1	[0, 0, 0]	n/a	0	0	0	n/a	n/a	0.0	0	0	0	FR2	0	R1150J
148.019	1.6	542677	WORD	n/a	wordpools/wordpool_EN.txt	PIPE	8	0	1	[0, 0, 0]	n/a	0	0	0	n/a	n/a	0.0	0	0	0	FR2	0	R1150J
150.603	1.6	545261	WORD	n/a	wordpools/wordpool_EN.txt	CRANE	9	0	1	[0, 0, 0]	n/a	0	0	0	n/a	n/a	0.0	0	0	0	FR2	0	R1150J
153.053	1.6	547711	WORD	n/a	wordpools/wordpool_EN.txt	MOUTH	10	0	1	[0, 0, 0]	n/a	0	0	0	n/a	n/a	0.0	0	0	0	FR2	0	R1150J
155.587	1.6	550245	WORD	n/a	wordpools/wordpool_EN.txt	WAND	11	1	1	[0, 0, 0]	n/a	0	0	0	n/a	n/a	0.0	0	0	0	FR2	0	R1150J
158.054	1.6	552712	WORD	n/a	wordpools/wordpool_EN.txt	THUMB	12	0	1	[0, 0, 0]	n/a	0	0	0	n/a	n/a	0.0	0	0	0	FR2	0	R1150J
159.671	0.001	554329	DISTRACT_START	n/a	n/a	n/a	-999	0	1	[0, 0, 0]	n/a	0	0	0	n/a	n/a	0.0	0	0	0	FR2	0	R1150J
159.672	0.016	554330	START	n/a	n/a	n/a	-999	0	1	[-999, -999, -999]	n/a	0	0	0	n/a	n/a	0.0	0	0	0	FR2	0	R1150J
159.688	3.833	554346	PROB	3.81	n/a	n/a	-999	0	1	[3, 5, 1]	9	0	0	0	n/a	n/a	0.0	0	0	0	FR2	0	R1150J
163.521	3.084	558179	PROB	3.056	n/a	n/a	-999	0	1	[2, 6, 9]	17	0	0	0	n/a	n/a	0.0	0	0	0	FR2	0	R1150J
166.605	5.384	561263	PROB	5.364	n/a	n/a	-999	0	1	[9, 7, 9]	25	0	0	0	n/a	n/a	0.0	0	0	0	FR2	0	R1150J
171.989	3.634	566647	PROB	3.612	n/a	n/a	-999	0	1	[6, 4, 9]	19	0	0	0	n/a	n/a	0.0	0	0	0	FR2	0	R1150J
175.623	2.266	570281	PROB	2.241	n/a	n/a	-999	0	1	[8, 2, 4]	14	0	0	0	n/a	n/a	0.0	0	0	0	FR2	0	R1150J
177.889	2.232	572547	PROB	2.232	n/a	n/a	-999	0	1	[7, 7, 3]	17	0	0	0	n/a	n/a	0.0	0	0	0	FR2	0	R1150J
180.121	0.019	574779	STOP	n/a	n/a	n/a	-999	0	1	[-999, -999, -999]	n/a	0	0	0	n/a	n/a	0.0	0	0	0	FR2	0	R1150J
180.14	1.068	574798	DISTRACT_END	n/a	n/a	n/a	-999	0	1	[0, 0, 0]	n/a	0	0	0	n/a	n/a	0.0	0	0	0	FR2	0	R1150J
181.208	3.318	575866	REC_START	n/a	n/a	n/a	-999	0	1	[0, 0, 0]	n/a	0	0	0	n/a	n/a	0.0	0	0	0	FR2	0	R1150J
184.526	1.708	579184	REC_WORD	3.318	n/a	AXE	1	1	1	[0, 0, 0]	n/a	0	0	0	n/a	n/a	0.0	0	0	0	FR2	0	R1150J
186.234	1.519	580892	REC_WORD	5.026	n/a	OWL	2	1	1	[0, 0, 0]	n/a	0	0	0	n/a	n/a	0.0	0	0	0	FR2	0	R1150J
187.753	18.551	582411	REC_WORD	6.545	n/a	WAND	11	1	1	[0, 0, 0]	n/a	0	0	0	n/a	n/a	0.0	0	0	0	FR2	0	R1150J
206.304	4.915	600962	REC_WORD	25.096	n/a	WARD	-999	0	1	[0, 0, 0]	n/a	0	0	0	n/a	n/a	0.0	0	0	0	FR2	0	R1150J
211.219	2.691	605878	REC_END	n/a	n/a	n/a	-999	0	1	[0, 0, 0]	n/a	0	0	0	n/a	n/a	0.0	0	0	0	FR2	0	R1150J
213.91	10.0	608569	COUNTDOWN_START	n/a	n/a	n/a	-999	0	2	[0, 0, 0]	n/a	0	0	0	n/a	n/a	0.0	0	0	0	FR2	0	R1150J
213.911	10.427	608570	TRIAL	n/a	n/a	n/a	-999	0	2	[0, 0, 0]	n/a	0	0	0	n/a	n/a	0.0	0	0	0	FR2	0	R1150J
224.338	0.008	618997	COUNTDOWN_END	n/a	n/a	n/a	-999	0	2	[0, 0, 0]	n/a	0	0	0	n/a	n/a	0.0	0	0	0	FR2	0	R1150J
224.346	1.6	619005	ORIENT	n/a	n/a	n/a	-999	0	2	[0, 0, 0]	n/a	0	0	0	n/a	n/a	0.0	0	0	0	FR2	0	R1150J
226.762	1.6	621421	WORD	n/a	wordpools/wordpool_EN.txt	CHIEF	1	0	2	[0, 0, 0]	n/a	0	0	0	n/a	n/a	0.0	0	0	0	FR2	0	R1150J
229.347	1.6	624006	WORD	n/a	wordpools/wordpool_EN.txt	SCHOOL	2	0	2	[0, 0, 0]	n/a	0	0	0	n/a	n/a	0.0	0	0	0	FR2	0	R1150J
231.981	1.6	626640	WORD	n/a	wordpools/wordpool_EN.txt	TRUCK	3	0	2	[0, 0, 0]	n/a	0	0	0	n/a	n/a	0.0	0	0	0	FR2	0	R1150J
234.397	1.6	629056	WORD	n/a	wordpools/wordpool_EN.txt	SINK	4	0	2	[0, 0, 0]	n/a	0	0	0	n/a	n/a	0.0	0	0	0	FR2	0	R1150J
236.913	1.6	631572	WORD	n/a	wordpools/wordpool_EN.txt	BADGE	5	0	2	[0, 0, 0]	n/a	0	0	0	n/a	n/a	0.0	0	0	0	FR2	0	R1150J
239.382	1.6	634041	WORD	n/a	wordpools/wordpool_EN.txt	DRESS	6	0	2	[0, 0, 0]	n/a	0	0	0	n/a	n/a	0.0	0	0	0	FR2	0	R1150J
241.814	1.6	636473	WORD	n/a	wordpools/wordpool_EN.txt	SPOON	7	0	2	[0, 0, 0]	n/a	0	0	0	n/a	n/a	0.0	0	0	0	FR2	0	R1150J
244.332	1.6	638991	WORD	n/a	wordpools/wordpool_EN.txt	APE	8	0	2	[0, 0, 0]	n/a	0	0	0	n/a	n/a	0.0	0	0	0	FR2	0	R1150J
246.931	1.6	641590	WORD	n/a	wordpools/wordpool_EN.txt	DESK	9	0	2	[0, 0, 0]	n/a	0	0	0	n/a	n/a	0.0	0	0	0	FR2	0	R1150J
249.45	1.6	644109	WORD	n/a	wordpools/wordpool_EN.txt	SEAT	10	0	2	[0, 0, 0]	n/a	0	0	0	n/a	n/a	0.0	0	0	0	FR2	0	R1150J
252.0	1.6	646659	WORD	n/a	wordpools/wordpool_EN.txt	SMILE	11	0	2	[0, 0, 0]	n/a	0	0	0	n/a	n/a	0.0	0	0	0	FR2	0	R1150J
254.45	1.6	649109	WORD	n/a	wordpools/wordpool_EN.txt	FLAG	12	0	2	[0, 0, 0]	n/a	0	0	0	n/a	n/a	0.0	0	0	0	FR2	0	R1150J
256.067	0.001	650726	DISTRACT_START	n/a	n/a	n/a	-999	0	2	[0, 0, 0]	n/a	0	0	0	n/a	n/a	0.0	0	0	0	FR2	0	R1150J
256.068	0.015	650727	START	n/a	n/a	n/a	-999	0	2	[-999, -999, -999]	n/a	0	0	0	n/a	n/a	0.0	0	0	0	FR2	0	R1150J
256.083	4.368	650742	PROB	4.339	n/a	n/a	-999	0	2	[3, 4, 5]	12	0	0	0	n/a	n/a	0.0	0	0	0	FR2	0	R1150J
260.451	2.2	655110	PROB	2.179	n/a	n/a	-999	0	2	[7, 4, 5]	16	0	0	0	n/a	n/a	0.0	0	0	0	FR2	0	R1150J
262.651	1.951	657310	PROB	1.915	n/a	n/a	-999	0	2	[7, 3, 8]	18	0	0	0	n/a	n/a	0.0	0	0	0	FR2	0	R1150J
264.602	4.884	659261	PROB	4.852	n/a	n/a	-999	0	2	[9, 7, 6]	22	0	0	0	n/a	n/a	0.0	0	0	0	FR2	0	R1150J
269.486	2.9	664145	PROB	2.88	n/a	n/a	-999	0	2	[4, 6, 8]	18	0	0	0	n/a	n/a	0.0	0	0	0	FR2	0	R1150J
272.386	3.516	667045	PROB	3.483	n/a	n/a	-999	0	2	[7, 9, 4]	20	0	0	0	n/a	n/a	0.0	0	0	0	FR2	0	R1150J
275.902	2.959	670562	PROB	2.959	n/a	n/a	-999	0	2	[3, 5, 7]	15	0	0	0	n/a	n/a	0.0	0	0	0	FR2	0	R1150J
278.861	0.008	673521	STOP	n/a	n/a	n/a	-999	0	2	[-999, -999, -999]	n/a	0	0	0	n/a	n/a	0.0	0	0	0	FR2	0	R1150J
278.869	1.135	673529	DISTRACT_END	n/a	n/a	n/a	-999	0	2	[0, 0, 0]	n/a	0	0	0	n/a	n/a	0.0	0	0	0	FR2	0	R1150J
280.004	5.312	674664	REC_START	n/a	n/a	n/a	-999	0	2	[0, 0, 0]	n/a	0	0	0	n/a	n/a	0.0	0	0	0	FR2	0	R1150J
285.316	24.702	679976	REC_WORD	5.312	n/a	OWL	-999	0	2	[0, 0, 0]	n/a	0	0	0	n/a	n/a	0.0	0	0	0	FR2	0	R1150J
310.018	2.657	704678	REC_END	n/a	n/a	n/a	-999	0	2	[0, 0, 0]	n/a	0	0	0	n/a	n/a	0.0	0	0	0	FR2	0	R1150J
312.675	0.0	707335	TRIAL	n/a	n/a	n/a	-999	0	3	[0, 0, 0]	n/a	0	1	0	n/a	n/a	0.0	0	0	0	FR2	0	R1150J
312.675	10.0	707335	COUNTDOWN_START	n/a	n/a	n/a	-999	0	3	[0, 0, 0]	n/a	0	1	0	n/a	n/a	0.0	0	0	0	FR2	0	R1150J
323.103	0.023	717763	COUNTDOWN_END	n/a	n/a	n/a	-999	0	3	[0, 0, 0]	n/a	0	1	0	n/a	n/a	0.0	0	0	0	FR2	0	R1150J
323.126	1.6	717786	ORIENT	n/a	n/a	n/a	-999	0	3	[0, 0, 0]	n/a	0	1	0	n/a	n/a	0.0	0	0	0	FR2	0	R1150J
325.56	1.6	720220	WORD	n/a	wordpools/wordpool_EN.txt	SPEAR	1	1	3	[0, 0, 0]	n/a	0	1	0	n/a	n/a	0.0	0	0	0	FR2	0	R1150J
328.143	1.6	722803	WORD	n/a	wordpools/wordpool_EN.txt	HOLE	2	0	3	[0, 0, 0]	n/a	0	1	0	n/a	n/a	0.0	0	0	0	FR2	0	R1150J
330.35	4.6	725010	STIM_ON	n/a	n/a	n/a	-999	0	3	[0, 0, 0]	n/a	1	1	4600	LC1	LC2	250.0	50	230	300	FR2	0	R1150J
330.561	1.6	725221	WORD	n/a	wordpools/wordpool_EN.txt	BUSH	3	0	3	[0, 0, 0]	n/a	1	1	4600	LC1	LC2	250.0	50	230	300	FR2	0	R1150J
333.111	1.6	727771	WORD	n/a	wordpools/wordpool_EN.txt	CHIN	4	0	3	[0, 0, 0]	n/a	1	1	4600	LC1	LC2	250.0	50	230	300	FR2	0	R1150J
335.694	1.6	730354	WORD	n/a	wordpools/wordpool_EN.txt	CHEEK	5	0	3	[0, 0, 0]	n/a	0	1	0	n/a	n/a	0.0	0	0	0	FR2	0	R1150J
338.228	1.6	732888	WORD	n/a	wordpools/wordpool_EN.txt	PALM	6	0	3	[0, 0, 0]	n/a	0	1	0	n/a	n/a	0.0	0	0	0	FR2	0	R1150J
340.399	4.6	735059	STIM_ON	n/a	n/a	n/a	-999	0	3	[0, 0, 0]	n/a	1	1	4600	LC1	LC2	250.0	50	230	300	FR2	0	R1150J
340.612	1.6	735272	WORD	n/a	wordpools/wordpool_EN.txt	FLOOR	7	0	3	[0, 0, 0]	n/a	1	1	4600	LC1	LC2	250.0	50	230	300	FR2	0	R1150J
343.029	1.6	737689	WORD	n/a	wordpools/wordpool_EN.txt	CONE	8	0	3	[0, 0, 0]	n/a	1	1	4600	LC1	LC2	250.0	50	230	300	FR2	0	R1150J
345.579	1.6	740240	WORD	n/a	wordpools/wordpool_EN.txt	LOCK	9	0	3	[0, 0, 0]	n/a	0	1	0	n/a	n/a	0.0	0	0	0	FR2	0	R1150J
348.096	1.6	742757	WORD	n/a	wordpools/wordpool_EN.txt	SWORD	10	0	3	[0, 0, 0]	n/a	0	1	0	n/a	n/a	0.0	0	0	0	FR2	0	R1150J
350.468	4.6	745129	STIM_ON	n/a	n/a	n/a	-999	0	3	[0, 0, 0]	n/a	1	1	4600	LC1	LC2	250.0	50	230	300	FR2	0	R1150J
350.68	1.6	745341	WORD	n/a	wordpools/wordpool_EN.txt	FROG	11	0	3	[0, 0, 0]	n/a	1	1	4600	LC1	LC2	250.0	50	230	300	FR2	0	R1150J
353.18	1.6	747841	WORD	n/a	wordpools/wordpool_EN.txt	FLAME	12	0	3	[0, 0, 0]	n/a	1	1	4600	LC1	LC2	250.0	50	230	300	FR2	0	R1150J
354.796	0.001	749457	DISTRACT_START	n/a	n/a	n/a	-999	0	3	[0, 0, 0]	n/a	1	1	4600	LC1	LC2	250.0	50	230	300	FR2	0	R1150J
354.797	0.015	749458	START	n/a	n/a	n/a	-999	0	3	[-999, -999, -999]	n/a	0	1	0	n/a	n/a	0.0	0	0	0	FR2	0	R1150J
354.812	2.435	749473	PROB	2.414	n/a	n/a	-999	0	3	[9, 5, 5]	19	0	1	0	n/a	n/a	0.0	0	0	0	FR2	0	R1150J
357.247	5.301	751908	PROB	5.268	n/a	n/a	-999	0	3	[4, 2, 6]	12	0	1	0	n/a	n/a	0.0	0	0	0	FR2	0	R1150J
362.548	2.45	757209	PROB	2.413	n/a	n/a	-999	0	3	[4, 2, 9]	15	0	1	0	n/a	n/a	0.0	0	0	0	FR2	0	R1150J
364.998	3.551	759659	PROB	3.524	n/a	n/a	-999	0	3	[6, 2, 5]	13	0	1	0	n/a	n/a	0.0	0	0	0	FR2	0	R1150J
368.549	2.299	763210	PROB	2.269	n/a	n/a	-999	0	3	[4, 8, 4]	16	0	1	0	n/a	n/a	0.0	0	0	0	FR2	0	R1150J
370.848	2.218	765509	PROB	2.186	n/a	n/a	-999	0	3	[8, 8, 2]	18	0	1	0	n/a	n/a	0.0	0	0	0	FR2	0	R1150J
373.066	1.735	767727	PROB	1.735	n/a	n/a	-999	0	3	[6, 4, 8]	18	0	1	0	n/a	n/a	0.0	0	0	0	FR2	0	R1150J
374.801	0.014	769462	STOP	n/a	n/a	n/a	-999	0	3	[-999, -999, -999]	n/a	0	1	0	n/a	n/a	0.0	0	0	0	FR2	0	R1150J
374.815	1.117	769476	DISTRACT_END	n/a	n/a	n/a	-999	0	3	[0, 0, 0]	n/a	0	1	0	n/a	n/a	0.0	0	0	0	FR2	0	R1150J
375.932	1.981	770593	REC_START	n/a	n/a	n/a	-999	0	3	[0, 0, 0]	n/a	0	1	0	n/a	n/a	0.0	0	0	0	FR2	0	R1150J
377.913	1.566	772574	REC_WORD_VV	1.981	n/a	<>	-999	0	3	[0, 0, 0]	n/a	0	1	0	n/a	n/a	0.0	0	0	0	FR2	0	R1150J
379.479	1.774	774140	REC_WORD	3.547	n/a	SPEAR	1	1	3	[0, 0, 0]	n/a	0	1	0	n/a	n/a	0.0	0	0	0	FR2	0	R1150J
381.253	2.864	775914	REC_WORD	5.321	n/a	LOG	-999	0	3	[0, 0, 0]	n/a	0	1	0	n/a	n/a	0.0	0	0	0	FR2	0	R1150J
384.117	21.826	778778	REC_WORD	8.185	n/a	BLOCK	-999	0	3	[0, 0, 0]	n/a	0	1	0	n/a	n/a	0.0	0	0	0	FR2	0	R1150J
405.943	1.811	800604	REC_END	n/a	n/a	n/a	-999	0	3	[0, 0, 0]	n/a	0	1	0	n/a	n/a	0.0	0	0	0	FR2	0	R1150J
407.754	0.0	802415	TRIAL	n/a	n/a	n/a	-999	0	4	[0, 0, 0]	n/a	0	0	0	n/a	n/a	0.0	0	0	0	FR2	0	R1150J
407.754	10.0	802415	COUNTDOWN_START	n/a	n/a	n/a	-999	0	4	[0, 0, 0]	n/a	0	0	0	n/a	n/a	0.0	0	0	0	FR2	0	R1150J
418.182	0.007	812844	COUNTDOWN_END	n/a	n/a	n/a	-999	0	4	[0, 0, 0]	n/a	0	0	0	n/a	n/a	0.0	0	0	0	FR2	0	R1150J
418.189	1.6	812851	ORIENT	n/a	n/a	n/a	-999	0	4	[0, 0, 0]	n/a	0	0	0	n/a	n/a	0.0	0	0	0	FR2	0	R1150J
420.772	1.6	815434	WORD	n/a	wordpools/wordpool_EN.txt	RAKE	1	0	4	[0, 0, 0]	n/a	0	0	0	n/a	n/a	0.0	0	0	0	FR2	0	R1150J
423.406	1.6	818068	WORD	n/a	wordpools/wordpool_EN.txt	TEETH	2	0	4	[0, 0, 0]	n/a	0	0	0	n/a	n/a	0.0	0	0	0	FR2	0	R1150J
425.872	1.6	820534	WORD	n/a	wordpools/wordpool_EN.txt	CROWN	3	0	4	[0, 0, 0]	n/a	0	0	0	n/a	n/a	0.0	0	0	0	FR2	0	R1150J
428.406	1.6	823068	WORD	n/a	wordpools/wordpool_EN.txt	BEAR	4	1	4	[0, 0, 0]	n/a	0	0	0	n/a	n/a	0.0	0	0	0	FR2	0	R1150J
430.906	1.6	825568	WORD	n/a	wordpools/wordpool_EN.txt	FISH	5	1	4	[0, 0, 0]	n/a	0	0	0	n/a	n/a	0.0	0	0	0	FR2	0	R1150J
433.307	1.6	827969	WORD	n/a	wordpools/wordpool_EN.txt	BIRD	6	0	4	[0, 0, 0]	n/a	0	0	0	n/a	n/a	0.0	0	0	0	FR2	0	R1150J
435.873	1.6	830535	WORD	n/a	wordpools/wordpool_EN.txt	DUCK	7	1	4	[0, 0, 0]	n/a	0	0	0	n/a	n/a	0.0	0	0	0	FR2	0	R1150J
438.391	1.6	833053	WORD	n/a	wordpools/wordpool_EN.txt	SHRIMP	8	0	4	[0, 0, 0]	n/a	0	0	0	n/a	n/a	0.0	0	0	0	FR2	0	R1150J
440.824	1.6	835486	WORD	n/a	wordpools/wordpool_EN.txt	DEER	9	0	4	[0, 0, 0]	n/a	0	0	0	n/a	n/a	0.0	0	0	0	FR2	0	R1150J
443.259	1.6	837921	WORD	n/a	wordpools/wordpool_EN.txt	FRUIT	10	0	4	[0, 0, 0]	n/a	0	0	0	n/a	n/a	0.0	0	0	0	FR2	0	R1150J
445.692	1.6	840354	WORD	n/a	wordpools/wordpool_EN.txt	RIB	11	1	4	[0, 0, 0]	n/a	0	0	0	n/a	n/a	0.0	0	0	0	FR2	0	R1150J
448.126	1.6	842788	WORD	n/a	wordpools/wordpool_EN.txt	WORM	12	0	4	[0, 0, 0]	n/a	0	0	0	n/a	n/a	0.0	0	0	0	FR2	0	R1150J
449.743	0.001	844405	DISTRACT_START	n/a	n/a	n/a	-999	0	4	[0, 0, 0]	n/a	0	0	0	n/a	n/a	0.0	0	0	0	FR2	0	R1150J
449.744	0.016	844406	START	n/a	n/a	n/a	-999	0	4	[-999, -999, -999]	n/a	0	0	0	n/a	n/a	0.0	0	0	0	FR2	0	R1150J
449.76	2.367	844422	PROB	2.344	n/a	n/a	-999	0	4	[1, 8, 1]	10	0	0	0	n/a	n/a	0.0	0	0	0	FR2	0	R1150J
452.127	2.366	846789	PROB	2.337	n/a	n/a	-999	0	4	[1, 2, 9]	12	0	0	0	n/a	n/a	0.0	0	0	0	FR2	0	R1150J
454.493	1.818	849155	PROB	1.787	n/a	n/a	-999	0	4	[2, 7, 8]	17	0	0	0	n/a	n/a	0.0	0	0	0	FR2	0	R1150J
456.311	2.333	850973	PROB	2.304	n/a	n/a	-999	0	4	[8, 2, 8]	18	0	0	0	n/a	n/a	0.0	0	0	0	FR2	0	R1150J
458.644	2.166	853306	PROB	2.146	n/a	n/a	-999	0	4	[8, 3, 6]	17	0	0	0	n/a	n/a	0.0	0	0	0	FR2	0	R1150J
460.81	3.301	855472	PROB	3.269	n/a	n/a	-999	0	4	[5, 9, 8]	22	0	0	0	n/a	n/a	0.0	0	0	0	FR2	0	R1150J
464.111	2.568	858773	PROB	2.544	n/a	n/a	-999	0	4	[1, 5, 7]	13	0	0	0	n/a	n/a	0.0	0	0	0	FR2	0	R1150J
466.679	1.683	861341	PROB	1.648	n/a	n/a	-999	0	4	[2, 8, 1]	11	0	0	0	n/a	n/a	0.0	0	0	0	FR2	0	R1150J
468.362	1.532	863024	PROB	1.532	n/a	n/a	-999	0	4	[5, 6, 1]	12	0	0	0	n/a	n/a	0.0	0	0	0	FR2	0	R1150J
469.894	0.017	864556	STOP	n/a	n/a	n/a	-999	0	4	[-999, -999, -999]	n/a	0	0	0	n/a	n/a	0.0	0	0	0	FR2	0	R1150J
469.911	1.086	864573	DISTRACT_END	n/a	n/a	n/a	-999	0	4	[0, 0, 0]	n/a	0	0	0	n/a	n/a	0.0	0	0	0	FR2	0	R1150J
470.997	2.084	865659	REC_START	n/a	n/a	n/a	-999	0	4	[0, 0, 0]	n/a	0	0	0	n/a	n/a	0.0	0	0	0	FR2	0	R1150J
473.081	0.408	867743	REC_WORD	2.084	n/a	BEAR	4	1	4	[0, 0, 0]	n/a	0	0	0	n/a	n/a	0.0	0	0	0	FR2	0	R1150J
473.489	1.226	868151	REC_WORD	2.492	n/a	FISH	5	1	4	[0, 0, 0]	n/a	0	0	0	n/a	n/a	0.0	0	0	0	FR2	0	R1150J
474.715	17.217	869377	REC_WORD	3.718	n/a	DUCK	7	1	4	[0, 0, 0]	n/a	0	0	0	n/a	n/a	0.0	0	0	0	FR2	0	R1150J
491.932	9.074	886595	REC_WORD	20.935	n/a	RIB	11	1	4	[0, 0, 0]	n/a	0	0	0	n/a	n/a	0.0	0	0	0	FR2	0	R1150J
501.006	1.577	895669	REC_END	n/a	n/a	n/a	-999	0	4	[0, 0, 0]	n/a	0	0	0	n/a	n/a	0.0	0	0	0	FR2	0	R1150J
502.583	10.0	897246	COUNTDOWN_START	n/a	n/a	n/a	-999	0	5	[0, 0, 0]	n/a	0	1	0	n/a	n/a	0.0	0	0	0	FR2	0	R1150J
502.584	10.427	897247	TRIAL	n/a	n/a	n/a	-999	0	5	[0, 0, 0]	n/a	0	1	0	n/a	n/a	0.0	0	0	0	FR2	0	R1150J
513.011	0.007	907674	COUNTDOWN_END	n/a	n/a	n/a	-999	0	5	[0, 0, 0]	n/a	0	1	0	n/a	n/a	0.0	0	0	0	FR2	0	R1150J
513.018	1.6	907681	ORIENT	n/a	n/a	n/a	-999	0	5	[0, 0, 0]	n/a	0	1	0	n/a	n/a	0.0	0	0	0	FR2	0	R1150J
515.485	1.6	910148	WORD	n/a	wordpools/wordpool_EN.txt	ROOF	1	0	5	[0, 0, 0]	n/a	0	1	0	n/a	n/a	0.0	0	0	0	FR2	0	R1150J
518.035	1.6	912698	WORD	n/a	wordpools/wordpool_EN.txt	POND	2	0	5	[0, 0, 0]	n/a	0	1	0	n/a	n/a	0.0	0	0	0	FR2	0	R1150J
520.275	4.6	914938	STIM_ON	n/a	n/a	n/a	-999	0	5	[0, 0, 0]	n/a	1	1	4600	LC1	LC2	250.0	50	230	300	FR2	0	R1150J
520.486	1.6	915149	WORD	n/a	wordpools/wordpool_EN.txt	RICE	3	0	5	[0, 0, 0]	n/a	1	1	4600	LC1	LC2	250.0	50	230	300	FR2	0	R1150J
523.019	1.6	917682	WORD	n/a	wordpools/wordpool_EN.txt	BLUSH	4	0	5	[0, 0, 0]	n/a	1	1	4600	LC1	LC2	250.0	50	230	300	FR2	0	R1150J
525.62	1.6	920283	WORD	n/a	wordpools/wordpool_EN.txt	GLASS	5	0	5	[0, 0, 0]	n/a	0	1	0	n/a	n/a	0.0	0	0	0	FR2	0	R1150J
528.087	1.6	922750	WORD	n/a	wordpools/wordpool_EN.txt	SNAIL	6	0	5	[0, 0, 0]	n/a	0	1	0	n/a	n/a	0.0	0	0	0	FR2	0	R1150J
530.456	4.6	925119	STIM_ON	n/a	n/a	n/a	-999	0	5	[0, 0, 0]	n/a	1	1	4600	LC1	LC2	250.0	50	230	300	FR2	0	R1150J
530.671	1.6	925334	WORD	n/a	wordpools/wordpool_EN.txt	FOOD	7	0	5	[0, 0, 0]	n/a	1	1	4600	LC1	LC2	250.0	50	230	300	FR2	0	R1150J
533.187	1.6	927850	WORD	n/a	wordpools/wordpool_EN.txt	HOOK	8	0	5	[0, 0, 0]	n/a	1	1	4600	LC1	LC2	250.0	50	230	300	FR2	0	R1150J
535.721	1.6	930384	WORD	n/a	wordpools/wordpool_EN.txt	MILK	9	0	5	[0, 0, 0]	n/a	0	1	0	n/a	n/a	0.0	0	0	0	FR2	0	R1150J
538.221	1.6	932884	WORD	n/a	wordpools/wordpool_EN.txt	TOAD	10	0	5	[0, 0, 0]	n/a	0	1	0	n/a	n/a	0.0	0	0	0	FR2	0	R1150J
540.535	4.6	935198	STIM_ON	n/a	n/a	n/a	-999	0	5	[0, 0, 0]	n/a	1	1	4600	LC1	LC2	250.0	50	230	300	FR2	0	R1150J
540.739	1.6	935402	WORD	n/a	wordpools/wordpool_EN.txt	JAR	11	0	5	[0, 0, 0]	n/a	1	1	4600	LC1	LC2	250.0	50	230	300	FR2	0	R1150J
543.339	1.6	938002	WORD	n/a	wordpools/wordpool_EN.txt	SUN	12	1	5	[0, 0, 0]	n/a	1	1	4600	LC1	LC2	250.0	50	230	300	FR2	0	R1150J
544.954	0.001	939617	DISTRACT_START	n/a	n/a	n/a	-999	0	5	[0, 0, 0]	n/a	1	1	4600	LC1	LC2	250.0	50	230	300	FR2	0	R1150J
544.955	0.017	939618	START	n/a	n/a	n/a	-999	0	5	[-999, -999, -999]	n/a	0	1	0	n/a	n/a	0.0	0	0	0	FR2	0	R1150J
544.972	2.634	939635	PROB	2.6	n/a	n/a	-999	0	5	[7, 2, 7]	16	0	1	0	n/a	n/a	0.0	0	0	0	FR2	0	R1150J
547.606	4.117	942270	PROB	4.086	n/a	n/a	-999	0	5	[4, 5, 8]	13	0	1	0	n/a	n/a	0.0	0	0	0	FR2	0	R1150J
551.723	2.817	946387	PROB	2.793	n/a	n/a	-999	0	5	[1, 3, 8]	12	0	1	0	n/a	n/a	0.0	0	0	0	FR2	0	R1150J
554.54	2.249	949204	PROB	2.223	n/a	n/a	-999	0	5	[7, 1, 9]	17	0	1	0	n/a	n/a	0.0	0	0	0	FR2	0	R1150J
556.789	3.018	951453	PROB	2.998	n/a	n/a	-999	0	5	[4, 1, 8]	13	0	1	0	n/a	n/a	0.0	0	0	0	FR2	0	R1150J
559.807	4.885	954471	PROB	4.852	n/a	n/a	-999	0	5	[3, 3, 9]	15	0	1	0	n/a	n/a	0.0	0	0	0	FR2	0	R1150J
564.692	3.88	959356	PROB	3.88	n/a	n/a	-999	0	5	[8, 9, 7]	24	0	1	0	n/a	n/a	0.0	0	0	0	FR2	0	R1150J
568.572	0.003	963236	STOP	n/a	n/a	n/a	-999	0	5	[-999, -999, -999]	n/a	0	1	0	n/a	n/a	0.0	0	0	0	FR2	0	R1150J
568.575	1.185	963239	DISTRACT_END	n/a	n/a	n/a	-999	0	5	[0, 0, 0]	n/a	0	1	0	n/a	n/a	0.0	0	0	0	FR2	0	R1150J
569.76	1.167	964424	REC_START	n/a	n/a	n/a	-999	0	5	[0, 0, 0]	n/a	0	1	0	n/a	n/a	0.0	0	0	0	FR2	0	R1150J
570.927	0.751	965591	REC_WORD	1.167	n/a	SUN	12	1	5	[0, 0, 0]	n/a	0	1	0	n/a	n/a	0.0	0	0	0	FR2	0	R1150J
571.678	0.19	966342	REC_WORD_VV	1.918	n/a	<>	-999	0	5	[0, 0, 0]	n/a	0	1	0	n/a	n/a	0.0	0	0	0	FR2	0	R1150J
571.868	2.307	966532	REC_WORD	2.108	n/a	SUN	12	1	5	[0, 0, 0]	n/a	0	1	0	n/a	n/a	0.0	0	0	0	FR2	0	R1150J
574.175	4.103	968839	REC_WORD	4.415	n/a	FISH	-999	0	5	[0, 0, 0]	n/a	0	1	0	n/a	n/a	0.0	0	0	0	FR2	0	R1150J
578.278	1.0	972942	REC_WORD_VV	8.518	n/a	<>	-999	0	5	[0, 0, 0]	n/a	0	1	0	n/a	n/a	0.0	0	0	0	FR2	0	R1150J
579.278	0.16	973942	REC_WORD_VV	9.518	n/a	<>	-999	0	5	[0, 0, 0]	n/a	0	1	0	n/a	n/a	0.0	0	0	0	FR2	0	R1150J
579.438	20.331	974102	REC_WORD	9.678	n/a	BEAR	-999	0	5	[0, 0, 0]	n/a	0	1	0	n/a	n/a	0.0	0	0	0	FR2	0	R1150J
599.769	2.611	994433	REC_END	n/a	n/a	n/a	-999	0	5	[0, 0, 0]	n/a	0	1	0	n/a	n/a	0.0	0	0	0	FR2	0	R1150J
602.38	10.0	997044	COUNTDOWN_START	n/a	n/a	n/a	-999	0	6	[0, 0, 0]	n/a	0	1	0	n/a	n/a	0.0	0	0	0	FR2	0	R1150J
602.38	10.428	997044	TRIAL	n/a	n/a	n/a	-999	0	6	[0, 0, 0]	n/a	0	1	0	n/a	n/a	0.0	0	0	0	FR2	0	R1150J
612.808	0.006	1007472	COUNTDOWN_END	n/a	n/a	n/a	-999	0	6	[0, 0, 0]	n/a	0	1	0	n/a	n/a	0.0	0	0	0	FR2	0	R1150J
612.814	1.6	1007478	ORIENT	n/a	n/a	n/a	-999	0	6	[0, 0, 0]	n/a	0	1	0	n/a	n/a	0.0	0	0	0	FR2	0	R1150J
615.281	1.6	1009945	WORD	n/a	wordpools/wordpool_EN.txt	HOUSE	1	0	6	[0, 0, 0]	n/a	0	1	0	n/a	n/a	0.0	0	0	0	FR2	0	R1150J
617.831	1.6	1012496	WORD	n/a	wordpools/wordpool_EN.txt	MAZE	2	0	6	[0, 0, 0]	n/a	0	1	0	n/a	n/a	0.0	0	0	0	FR2	0	R1150J
620.037	4.6	1014702	STIM_ON	n/a	n/a	n/a	-999	0	6	[0, 0, 0]	n/a	1	1	4600	LC1	LC2	250.0	50	230	300	FR2	0	R1150J
620.249	1.6	1014914	WORD	n/a	wordpools/wordpool_EN.txt	BATH	3	0	6	[0, 0, 0]	n/a	1	1	4600	LC1	LC2	250.0	50	230	300	FR2	0	R1150J
622.749	1.6	1017414	WORD	n/a	wordpools/wordpool_EN.txt	SNAKE	4	0	6	[0, 0, 0]	n/a	1	1	4600	LC1	LC2	250.0	50	230	300	FR2	0	R1150J
625.366	1.6	1020031	WORD	n/a	wordpools/wordpool_EN.txt	DITCH	5	0	6	[0, 0, 0]	n/a	0	1	0	n/a	n/a	0.0	0	0	0	FR2	0	R1150J
627.899	1.6	1022564	WORD	n/a	wordpools/wordpool_EN.txt	STREET	6	1	6	[0, 0, 0]	n/a	0	1	0	n/a	n/a	0.0	0	0	0	FR2	0	R1150J
630.136	4.6	1024801	STIM_ON	n/a	n/a	n/a	-999	0	6	[0, 0, 0]	n/a	1	1	4600	LC1	LC2	250.0	50	230	300	FR2	0	R1150J
630.351	1.6	1025016	WORD	n/a	wordpools/wordpool_EN.txt	MUD	7	0	6	[0, 0, 0]	n/a	1	1	4600	LC1	LC2	250.0	50	230	300	FR2	0	R1150J
632.85	1.6	1027515	WORD	n/a	wordpools/wordpool_EN.txt	SWAMP	8	0	6	[0, 0, 0]	n/a	1	1	4600	LC1	LC2	250.0	50	230	300	FR2	0	R1150J
635.368	1.6	1030033	WORD	n/a	wordpools/wordpool_EN.txt	VINE	9	0	6	[0, 0, 0]	n/a	0	1	0	n/a	n/a	0.0	0	0	0	FR2	0	R1150J
637.851	1.6	1032516	WORD	n/a	wordpools/wordpool_EN.txt	SKY	10	0	6	[0, 0, 0]	n/a	0	1	0	n/a	n/a	0.0	0	0	0	FR2	0	R1150J
640.196	4.6	1034861	STIM_ON	n/a	n/a	n/a	-999	0	6	[0, 0, 0]	n/a	1	1	4600	LC1	LC2	250.0	50	230	300	FR2	0	R1150J
640.402	1.6	1035067	WORD	n/a	wordpools/wordpool_EN.txt	EEL	11	1	6	[0, 0, 0]	n/a	1	1	4600	LC1	LC2	250.0	50	230	300	FR2	0	R1150J
642.969	1.6	1037634	WORD	n/a	wordpools/wordpool_EN.txt	STAIR	12	0	6	[0, 0, 0]	n/a	1	1	4600	LC1	LC2	250.0	50	230	300	FR2	0	R1150J
644.586	0.001	1039251	DISTRACT_START	n/a	n/a	n/a	-999	0	6	[0, 0, 0]	n/a	1	1	4600	LC1	LC2	250.0	50	230	300	FR2	0	R1150J
644.587	0.015	1039252	START	n/a	n/a	n/a	-999	0	6	[-999, -999, -999]	n/a	0	1	0	n/a	n/a	0.0	0	0	0	FR2	0	R1150J
644.602	2.851	1039267	PROB	2.823	n/a	n/a	-999	0	6	[8, 1, 9]	18	0	1	0	n/a	n/a	0.0	0	0	0	FR2	0	R1150J
647.453	1.95	1042118	PROB	1.924	n/a	n/a	-999	0	6	[2, 2, 6]	10	0	1	0	n/a	n/a	0.0	0	0	0	FR2	0	R1150J
649.403	1.883	1044068	PROB	1.853	n/a	n/a	-999	0	6	[7, 2, 7]	16	0	1	0	n/a	n/a	0.0	0	0	0	FR2	0	R1150J
651.286	1.917	1045951	PROB	1.882	n/a	n/a	-999	0	6	[7, 7, 5]	19	0	1	0	n/a	n/a	0.0	0	0	0	FR2	0	R1150J
653.203	4.084	1047868	PROB	4.053	n/a	n/a	-999	0	6	[8, 9, 5]	22	0	1	0	n/a	n/a	0.0	0	0	0	FR2	0	R1150J
657.287	2.533	1051952	PROB	2.512	n/a	n/a	-999	0	6	[4, 7, 4]	15	0	1	0	n/a	n/a	0.0	0	0	0	FR2	0	R1150J
659.82	2.418	1054485	PROB	2.388	n/a	n/a	-999	0	6	[7, 8, 3]	18	0	1	0	n/a	n/a	0.0	0	0	0	FR2	0	R1150J
662.238	3.37	1056903	PROB	3.37	n/a	n/a	-999	0	6	[8, 5, 1]	14	0	1	0	n/a	n/a	0.0	0	0	0	FR2	0	R1150J
665.608	0.014	1060273	STOP	n/a	n/a	n/a	-999	0	6	[-999, -999, -999]	n/a	0	1	0	n/a	n/a	0.0	0	0	0	FR2	0	R1150J
665.622	1.216	1060287	DISTRACT_END	n/a	n/a	n/a	-999	0	6	[0, 0, 0]	n/a	0	1	0	n/a	n/a	0.0	0	0	0	FR2	0	R1150J
666.838	1.499	1061503	REC_START	n/a	n/a	n/a	-999	0	6	[0, 0, 0]	n/a	0	1	0	n/a	n/a	0.0	0	0	0	FR2	0	R1150J
668.337	1.104	1063002	REC_WORD	1.499	n/a	STREET	6	1	6	[0, 0, 0]	n/a	0	1	0	n/a	n/a	0.0	0	0	0	FR2	0	R1150J
669.441	2.384	1064106	REC_WORD	2.603	n/a	EEL	11	1	6	[0, 0, 0]	n/a	0	1	0	n/a	n/a	0.0	0	0	0	FR2	0	R1150J
671.825	10.26	1066490	REC_WORD	4.987	n/a	SPINE	-999	0	6	[0, 0, 0]	n/a	0	1	0	n/a	n/a	0.0	0	0	0	FR2	0	R1150J
682.085	14.763	1076750	REC_WORD_VV	15.247	n/a	<>	-999	0	6	[0, 0, 0]	n/a	0	1	0	n/a	n/a	0.0	0	0	0	FR2	0	R1150J
696.848	1.762	1091514	REC_END	n/a	n/a	n/a	-999	0	6	[0, 0, 0]	n/a	0	1	0	n/a	n/a	0.0	0	0	0	FR2	0	R1150J
698.61	0.0	1093276	TRIAL	n/a	n/a	n/a	-999	0	7	[0, 0, 0]	n/a	0	1	0	n/a	n/a	0.0	0	0	0	FR2	0	R1150J
698.61	10.0	1093276	COUNTDOWN_START	n/a	n/a	n/a	-999	0	7	[0, 0, 0]	n/a	0	1	0	n/a	n/a	0.0	0	0	0	FR2	0	R1150J
709.038	0.006	1103704	COUNTDOWN_END	n/a	n/a	n/a	-999	0	7	[0, 0, 0]	n/a	0	1	0	n/a	n/a	0.0	0	0	0	FR2	0	R1150J
709.044	1.6	1103710	ORIENT	n/a	n/a	n/a	-999	0	7	[0, 0, 0]	n/a	0	1	0	n/a	n/a	0.0	0	0	0	FR2	0	R1150J
711.645	1.6	1106311	WORD	n/a	wordpools/wordpool_EN.txt	THREAD	1	0	7	[0, 0, 0]	n/a	0	1	0	n/a	n/a	0.0	0	0	0	FR2	0	R1150J
714.228	1.6	1108894	WORD	n/a	wordpools/wordpool_EN.txt	SHOE	2	1	7	[0, 0, 0]	n/a	0	1	0	n/a	n/a	0.0	0	0	0	FR2	0	R1150J
716.594	4.6	1111260	STIM_ON	n/a	n/a	n/a	-999	0	7	[0, 0, 0]	n/a	1	1	4600	LC1	LC2	250.0	50	230	300	FR2	0	R1150J
716.811	1.6	1111477	WORD	n/a	wordpools/wordpool_EN.txt	LIP	3	1	7	[0, 0, 0]	n/a	1	1	4600	LC1	LC2	250.0	50	230	300	FR2	0	R1150J
719.212	1.6	1113878	WORD	n/a	wordpools/wordpool_EN.txt	SUIT	4	0	7	[0, 0, 0]	n/a	1	1	4600	LC1	LC2	250.0	50	230	300	FR2	0	R1150J
721.828	1.6	1116494	WORD	n/a	wordpools/wordpool_EN.txt	RUG	5	0	7	[0, 0, 0]	n/a	0	1	0	n/a	n/a	0.0	0	0	0	FR2	0	R1150J
724.212	1.6	1118878	WORD	n/a	wordpools/wordpool_EN.txt	SHIELD	6	0	7	[0, 0, 0]	n/a	0	1	0	n/a	n/a	0.0	0	0	0	FR2	0	R1150J
726.539	4.6	1121205	STIM_ON	n/a	n/a	n/a	-999	0	7	[0, 0, 0]	n/a	1	1	4600	LC1	LC2	250.0	50	230	300	FR2	0	R1150J
726.747	1.6	1121413	WORD	n/a	wordpools/wordpool_EN.txt	SIGN	7	0	7	[0, 0, 0]	n/a	1	1	4600	LC1	LC2	250.0	50	230	300	FR2	0	R1150J
729.197	1.6	1123863	WORD	n/a	wordpools/wordpool_EN.txt	BEAK	8	0	7	[0, 0, 0]	n/a	1	1	4600	LC1	LC2	250.0	50	230	300	FR2	0	R1150J
731.714	1.6	1126380	WORD	n/a	wordpools/wordpool_EN.txt	PANTS	9	0	7	[0, 0, 0]	n/a	0	1	0	n/a	n/a	0.0	0	0	0	FR2	0	R1150J
734.264	1.6	1128930	WORD	n/a	wordpools/wordpool_EN.txt	SOAP	10	0	7	[0, 0, 0]	n/a	0	1	0	n/a	n/a	0.0	0	0	0	FR2	0	R1150J
736.662	4.6	1131328	STIM_ON	n/a	n/a	n/a	-999	0	7	[0, 0, 0]	n/a	1	1	4600	LC1	LC2	250.0	50	230	300	FR2	0	R1150J
736.88	1.6	1131546	WORD	n/a	wordpools/wordpool_EN.txt	CLOWN	11	0	7	[0, 0, 0]	n/a	1	1	4600	LC1	LC2	250.0	50	230	300	FR2	0	R1150J
739.482	1.6	1134148	WORD	n/a	wordpools/wordpool_EN.txt	LAMP	12	0	7	[0, 0, 0]	n/a	1	1	4600	LC1	LC2	250.0	50	230	300	FR2	0	R1150J
741.098	0.001	1135764	DISTRACT_START	n/a	n/a	n/a	-999	0	7	[0, 0, 0]	n/a	1	1	4600	LC1	LC2	250.0	50	230	300	FR2	0	R1150J
741.099	0.016	1135765	START	n/a	n/a	n/a	-999	0	7	[-999, -999, -999]	n/a	0	1	0	n/a	n/a	0.0	0	0	0	FR2	0	R1150J
741.115	2.367	1135781	PROB	2.346	n/a	n/a	-999	0	7	[2, 2, 7]	11	0	1	0	n/a	n/a	0.0	0	0	0	FR2	0	R1150J
743.482	2.383	1138148	PROB	2.362	n/a	n/a	-999	0	7	[8, 5, 4]	17	0	1	0	n/a	n/a	0.0	0	0	0	FR2	0	R1150J
745.865	2.885	1140531	PROB	2.853	n/a	n/a	-999	0	7	[2, 3, 3]	8	0	1	0	n/a	n/a	0.0	0	0	0	FR2	0	R1150J
748.75	2.734	1143416	PROB	2.712	n/a	n/a	-999	0	7	[4, 8, 6]	18	0	1	0	n/a	n/a	0.0	0	0	0	FR2	0	R1150J
751.484	2.448	1146150	PROB	2.416	n/a	n/a	-999	0	7	[5, 9, 2]	16	0	1	0	n/a	n/a	0.0	0	0	0	FR2	0	R1150J
753.932	2.034	1148599	PROB	2.0	n/a	n/a	-999	0	7	[8, 2, 6]	16	0	1	0	n/a	n/a	0.0	0	0	0	FR2	0	R1150J
755.966	2.851	1150633	PROB	2.83	n/a	n/a	-999	0	7	[4, 2, 5]	11	0	1	0	n/a	n/a	0.0	0	0	0	FR2	0	R1150J
758.817	3.963	1153484	PROB	3.963	n/a	n/a	-999	0	7	[8, 1, 7]	18	0	1	0	n/a	n/a	0.0	0	0	0	FR2	0	R1150J
762.78	0.004	1157447	STOP	n/a	n/a	n/a	-999	0	7	[-999, -999, -999]	n/a	0	1	0	n/a	n/a	0.0	0	0	0	FR2	0	R1150J
762.784	1.15	1157451	DISTRACT_END	n/a	n/a	n/a	-999	0	7	[0, 0, 0]	n/a	0	1	0	n/a	n/a	0.0	0	0	0	FR2	0	R1150J
763.934	1.952	1158601	REC_START	n/a	n/a	n/a	-999	0	7	[0, 0, 0]	n/a	0	1	0	n/a	n/a	0.0	0	0	0	FR2	0	R1150J
765.886	0.888	1160553	REC_WORD	1.952	n/a	SHOE	2	1	7	[0, 0, 0]	n/a	0	1	0	n/a	n/a	0.0	0	0	0	FR2	0	R1150J
766.774	0.781	1161441	REC_WORD	2.84	n/a	LIP	3	1	7	[0, 0, 0]	n/a	0	1	0	n/a	n/a	0.0	0	0	0	FR2	0	R1150J
767.555	4.441	1162222	REC_WORD	3.621	n/a	SEAL	-999	0	7	[0, 0, 0]	n/a	0	1	0	n/a	n/a	0.0	0	0	0	FR2	0	R1150J
771.996	21.95	1166663	REC_WORD	8.062	n/a	PLANT	-999	0	7	[0, 0, 0]	n/a	0	1	0	n/a	n/a	0.0	0	0	0	FR2	0	R1150J
793.946	1.992	1188613	REC_END	n/a	n/a	n/a	-999	0	7	[0, 0, 0]	n/a	0	1	0	n/a	n/a	0.0	0	0	0	FR2	0	R1150J
795.938	10.0	1190605	COUNTDOWN_START	n/a	n/a	n/a	-999	0	8	[0, 0, 0]	n/a	0	1	0	n/a	n/a	0.0	0	0	0	FR2	0	R1150J
795.938	10.428	1190605	TRIAL	n/a	n/a	n/a	-999	0	8	[0, 0, 0]	n/a	0	1	0	n/a	n/a	0.0	0	0	0	FR2	0	R1150J
806.366	0.008	1201033	COUNTDOWN_END	n/a	n/a	n/a	-999	0	8	[0, 0, 0]	n/a	0	1	0	n/a	n/a	0.0	0	0	0	FR2	0	R1150J
806.374	1.6	1201041	ORIENT	n/a	n/a	n/a	-999	0	8	[0, 0, 0]	n/a	0	1	0	n/a	n/a	0.0	0	0	0	FR2	0	R1150J
808.84	1.6	1203507	WORD	n/a	wordpools/wordpool_EN.txt	WOOD	1	0	8	[0, 0, 0]	n/a	0	1	0	n/a	n/a	0.0	0	0	0	FR2	0	R1150J
811.242	1.6	1205909	WORD	n/a	wordpools/wordpool_EN.txt	HAT	2	0	8	[0, 0, 0]	n/a	0	1	0	n/a	n/a	0.0	0	0	0	FR2	0	R1150J
813.524	4.6	1208191	STIM_ON	n/a	n/a	n/a	-999	0	8	[0, 0, 0]	n/a	1	1	4600	LC1	LC2	250.0	50	230	300	FR2	0	R1150J
813.741	1.6	1208408	WORD	n/a	wordpools/wordpool_EN.txt	JET	3	0	8	[0, 0, 0]	n/a	1	1	4600	LC1	LC2	250.0	50	230	300	FR2	0	R1150J
816.342	1.6	1211009	WORD	n/a	wordpools/wordpool_EN.txt	FOAM	4	0	8	[0, 0, 0]	n/a	1	1	4600	LC1	LC2	250.0	50	230	300	FR2	0	R1150J
818.841	1.6	1213508	WORD	n/a	wordpools/wordpool_EN.txt	BAT	5	0	8	[0, 0, 0]	n/a	0	1	0	n/a	n/a	0.0	0	0	0	FR2	0	R1150J
821.293	1.6	1215961	WORD	n/a	wordpools/wordpool_EN.txt	ROOM	6	1	8	[0, 0, 0]	n/a	0	1	0	n/a	n/a	0.0	0	0	0	FR2	0	R1150J
823.496	4.6	1218164	STIM_ON	n/a	n/a	n/a	-999	0	8	[0, 0, 0]	n/a	1	1	4600	LC1	LC2	250.0	50	230	300	FR2	0	R1150J
823.709	1.6	1218377	WORD	n/a	wordpools/wordpool_EN.txt	WING	7	0	8	[0, 0, 0]	n/a	1	1	4600	LC1	LC2	250.0	50	230	300	FR2	0	R1150J
826.293	1.6	1220961	WORD	n/a	wordpools/wordpool_EN.txt	SLIME	8	0	8	[0, 0, 0]	n/a	1	1	4600	LC1	LC2	250.0	50	230	300	FR2	0	R1150J
828.71	1.6	1223378	WORD	n/a	wordpools/wordpool_EN.txt	BOWL	9	0	8	[0, 0, 0]	n/a	0	1	0	n/a	n/a	0.0	0	0	0	FR2	0	R1150J
831.194	1.6	1225862	WORD	n/a	wordpools/wordpool_EN.txt	FUR	10	0	8	[0, 0, 0]	n/a	0	1	0	n/a	n/a	0.0	0	0	0	FR2	0	R1150J
833.543	4.6	1228211	STIM_ON	n/a	n/a	n/a	-999	0	8	[0, 0, 0]	n/a	1	1	4600	LC1	LC2	250.0	50	230	300	FR2	0	R1150J
833.761	1.6	1228429	WORD	n/a	wordpools/wordpool_EN.txt	PIN	11	0	8	[0, 0, 0]	n/a	1	1	4600	LC1	LC2	250.0	50	230	300	FR2	0	R1150J
836.378	1.6	1231046	WORD	n/a	wordpools/wordpool_EN.txt	SPARK	12	0	8	[0, 0, 0]	n/a	1	1	4600	LC1	LC2	250.0	50	230	300	FR2	0	R1150J
837.995	0.0	1232663	DISTRACT_START	n/a	n/a	n/a	-999	0	8	[0, 0, 0]	n/a	1	1	4600	LC1	LC2	250.0	50	230	300	FR2	0	R1150J
837.995	0.016	1232663	START	n/a	n/a	n/a	-999	0	8	[-999, -999, -999]	n/a	0	1	0	n/a	n/a	0.0	0	0	0	FR2	0	R1150J
838.011	2.75	1232679	PROB	2.719	n/a	n/a	-999	0	8	[5, 2, 2]	9	0	1	0	n/a	n/a	0.0	0	0	0	FR2	0	R1150J
840.761	2.718	1235429	PROB	2.697	n/a	n/a	-999	0	8	[8, 8, 4]	20	0	1	0	n/a	n/a	0.0	0	0	0	FR2	0	R1150J
843.479	1.6	1238147	PROB	1.571	n/a	n/a	-999	0	8	[1, 6, 5]	12	0	1	0	n/a	n/a	0.0	0	0	0	FR2	0	R1150J
845.079	3.534	1239747	PROB	3.499	n/a	n/a	-999	0	8	[2, 7, 6]	15	0	1	0	n/a	n/a	0.0	0	0	0	FR2	0	R1150J
848.613	1.85	1243281	PROB	1.821	n/a	n/a	-999	0	8	[2, 3, 6]	11	0	1	0	n/a	n/a	0.0	0	0	0	FR2	0	R1150J
850.463	2.733	1245131	PROB	2.699	n/a	n/a	-999	0	8	[2, 7, 6]	15	0	1	0	n/a	n/a	0.0	0	0	0	FR2	0	R1150J
853.196	4.485	1247864	PROB	4.453	n/a	n/a	-999	0	8	[2, 9, 6]	17	0	1	0	n/a	n/a	0.0	0	0	0	FR2	0	R1150J
857.681	1.76	1252349	PROB	1.76	n/a	n/a	-999	0	8	[8, 2, 2]	12	0	1	0	n/a	n/a	0.0	0	0	0	FR2	0	R1150J
859.441	0.007	1254109	STOP	n/a	n/a	n/a	-999	0	8	[-999, -999, -999]	n/a	0	1	0	n/a	n/a	0.0	0	0	0	FR2	0	R1150J
859.448	1.2	1254116	DISTRACT_END	n/a	n/a	n/a	-999	0	8	[0, 0, 0]	n/a	0	1	0	n/a	n/a	0.0	0	0	0	FR2	0	R1150J
860.648	1.921	1255316	REC_START	n/a	n/a	n/a	-999	0	8	[0, 0, 0]	n/a	0	1	0	n/a	n/a	0.0	0	0	0	FR2	0	R1150J
862.569	0.961	1257237	REC_WORD	1.921	n/a	ROOM	6	1	8	[0, 0, 0]	n/a	0	1	0	n/a	n/a	0.0	0	0	0	FR2	0	R1150J
863.53	23.269	1258198	REC_WORD	2.882	n/a	SEAL	-999	0	8	[0, 0, 0]	n/a	0	1	0	n/a	n/a	0.0	0	0	0	FR2	0	R1150J
886.799	3.863	1281467	REC_WORD	26.151	n/a	SEAL	-999	0	8	[0, 0, 0]	n/a	0	1	0	n/a	n/a	0.0	0	0	0	FR2	0	R1150J
890.662	1.724	1285331	REC_END	n/a	n/a	n/a	-999	0	8	[0, 0, 0]	n/a	0	1	0	n/a	n/a	0.0	0	0	0	FR2	0	R1150J
892.386	0.0	1287055	TRIAL	n/a	n/a	n/a	-999	0	9	[0, 0, 0]	n/a	0	1	0	n/a	n/a	0.0	0	0	0	FR2	0	R1150J
892.386	10.0	1287055	COUNTDOWN_START	n/a	n/a	n/a	-999	0	9	[0, 0, 0]	n/a	0	1	0	n/a	n/a	0.0	0	0	0	FR2	0	R1150J
902.814	0.005	1297483	COUNTDOWN_END	n/a	n/a	n/a	-999	0	9	[0, 0, 0]	n/a	0	1	0	n/a	n/a	0.0	0	0	0	FR2	0	R1150J
902.819	1.6	1297488	ORIENT	n/a	n/a	n/a	-999	0	9	[0, 0, 0]	n/a	0	1	0	n/a	n/a	0.0	0	0	0	FR2	0	R1150J
905.184	4.6	1299853	STIM_ON	n/a	n/a	n/a	-999	0	9	[0, 0, 0]	n/a	1	1	4600	LC1	LC2	250.0	50	230	300	FR2	0	R1150J
905.387	1.6	1300056	WORD	n/a	wordpools/wordpool_EN.txt	PIT	1	0	9	[0, 0, 0]	n/a	1	1	4600	LC1	LC2	250.0	50	230	300	FR2	0	R1150J
908.004	1.6	1302673	WORD	n/a	wordpools/wordpool_EN.txt	HILL	2	0	9	[0, 0, 0]	n/a	1	1	4600	LC1	LC2	250.0	50	230	300	FR2	0	R1150J
910.405	1.6	1305074	WORD	n/a	wordpools/wordpool_EN.txt	BROOM	3	0	9	[0, 0, 0]	n/a	0	1	0	n/a	n/a	0.0	0	0	0	FR2	0	R1150J
912.92	1.6	1307589	WORD	n/a	wordpools/wordpool_EN.txt	ARK	4	0	9	[0, 0, 0]	n/a	0	1	0	n/a	n/a	0.0	0	0	0	FR2	0	R1150J
915.21	4.6	1309879	STIM_ON	n/a	n/a	n/a	-999	0	9	[0, 0, 0]	n/a	1	1	4600	LC1	LC2	250.0	50	230	300	FR2	0	R1150J
915.422	1.6	1310091	WORD	n/a	wordpools/wordpool_EN.txt	STRAW	5	0	9	[0, 0, 0]	n/a	1	1	4600	LC1	LC2	250.0	50	230	300	FR2	0	R1150J
917.989	1.6	1312658	WORD	n/a	wordpools/wordpool_EN.txt	STONE	6	0	9	[0, 0, 0]	n/a	1	1	4600	LC1	LC2	250.0	50	230	300	FR2	0	R1150J
920.456	1.6	1315125	WORD	n/a	wordpools/wordpool_EN.txt	TREE	7	0	9	[0, 0, 0]	n/a	0	1	0	n/a	n/a	0.0	0	0	0	FR2	0	R1150J
923.056	1.6	1317725	WORD	n/a	wordpools/wordpool_EN.txt	SNOW	8	0	9	[0, 0, 0]	n/a	0	1	0	n/a	n/a	0.0	0	0	0	FR2	0	R1150J
925.32	4.6	1319989	STIM_ON	n/a	n/a	n/a	-999	0	9	[0, 0, 0]	n/a	1	1	4600	LC1	LC2	250.0	50	230	300	FR2	0	R1150J
925.523	1.6	1320192	WORD	n/a	wordpools/wordpool_EN.txt	OAK	9	0	9	[0, 0, 0]	n/a	1	1	4600	LC1	LC2	250.0	50	230	300	FR2	0	R1150J
927.974	1.6	1322643	WORD	n/a	wordpools/wordpool_EN.txt	FACE	10	0	9	[0, 0, 0]	n/a	1	1	4600	LC1	LC2	250.0	50	230	300	FR2	0	R1150J
930.524	1.6	1325193	WORD	n/a	wordpools/wordpool_EN.txt	NEST	11	0	9	[0, 0, 0]	n/a	0	1	0	n/a	n/a	0.0	0	0	0	FR2	0	R1150J
933.108	1.6	1327777	WORD	n/a	wordpools/wordpool_EN.txt	LAWN	12	0	9	[0, 0, 0]	n/a	0	1	0	n/a	n/a	0.0	0	0	0	FR2	0	R1150J
934.724	0.001	1329393	DISTRACT_START	n/a	n/a	n/a	-999	0	9	[0, 0, 0]	n/a	0	1	0	n/a	n/a	0.0	0	0	0	FR2	0	R1150J
934.725	0.016	1329394	START	n/a	n/a	n/a	-999	0	9	[-999, -999, -999]	n/a	0	1	0	n/a	n/a	0.0	0	0	0	FR2	0	R1150J
934.741	3.917	1329410	PROB	3.89	n/a	n/a	-999	0	9	[7, 6, 3]	16	0	1	0	n/a	n/a	0.0	0	0	0	FR2	0	R1150J
938.658	4.601	1333327	PROB	4.564	n/a	n/a	-999	0	9	[3, 4, 9]	16	0	1	0	n/a	n/a	0.0	0	0	0	FR2	0	R1150J
943.259	2.233	1337928	PROB	2.211	n/a	n/a	-999	0	9	[5, 2, 2]	9	0	1	0	n/a	n/a	0.0	0	0	0	FR2	0	R1150J
945.492	2.167	1340161	PROB	2.13	n/a	n/a	-999	0	9	[7, 1, 9]	17	0	1	0	n/a	n/a	0.0	0	0	0	FR2	0	R1150J
947.659	2.25	1342328	PROB	2.219	n/a	n/a	-999	0	9	[4, 9, 8]	21	0	1	0	n/a	n/a	0.0	0	0	0	FR2	0	R1150J
949.909	6.273	1344578	PROB	6.273	n/a	n/a	-999	0	9	[9, 7, 6]	22	0	1	0	n/a	n/a	0.0	0	0	0	FR2	0	R1150J
956.182	0.012	1350851	STOP	n/a	n/a	n/a	-999	0	9	[-999, -999, -999]	n/a	0	1	0	n/a	n/a	0.0	0	0	0	FR2	0	R1150J
956.194	1.084	1350863	DISTRACT_END	n/a	n/a	n/a	-999	0	9	[0, 0, 0]	n/a	0	1	0	n/a	n/a	0.0	0	0	0	FR2	0	R1150J
957.278	13.775	1351948	REC_START	n/a	n/a	n/a	-999	0	9	[0, 0, 0]	n/a	0	1	0	n/a	n/a	0.0	0	0	0	FR2	0	R1150J
971.053	16.235	1365723	REC_WORD	13.775	n/a	SNAKE	-999	0	9	[0, 0, 0]	n/a	0	1	0	n/a	n/a	0.0	0	0	0	FR2	0	R1150J
987.288	2.861	1381958	REC_END	n/a	n/a	n/a	-999	0	9	[0, 0, 0]	n/a	0	1	0	n/a	n/a	0.0	0	0	0	FR2	0	R1150J
990.149	0.0	1384819	TRIAL	n/a	n/a	n/a	-999	0	10	[0, 0, 0]	n/a	0	1	0	n/a	n/a	0.0	0	0	0	FR2	0	R1150J
990.149	10.0	1384819	COUNTDOWN_START	n/a	n/a	n/a	-999	0	10	[0, 0, 0]	n/a	0	1	0	n/a	n/a	0.0	0	0	0	FR2	0	R1150J
1000.577	0.006	1395247	COUNTDOWN_END	n/a	n/a	n/a	-999	0	10	[0, 0, 0]	n/a	0	1	0	n/a	n/a	0.0	0	0	0	FR2	0	R1150J
1000.583	1.6	1395253	ORIENT	n/a	n/a	n/a	-999	0	10	[0, 0, 0]	n/a	0	1	0	n/a	n/a	0.0	0	0	0	FR2	0	R1150J
1002.865	4.6	1397535	STIM_ON	n/a	n/a	n/a	-999	0	10	[0, 0, 0]	n/a	1	1	4600	LC1	LC2	250.0	50	230	300	FR2	0	R1150J
1003.066	1.6	1397736	WORD	n/a	wordpools/wordpool_EN.txt	CLOCK	1	0	10	[0, 0, 0]	n/a	1	1	4600	LC1	LC2	250.0	50	230	300	FR2	0	R1150J
1005.567	1.6	1400237	WORD	n/a	wordpools/wordpool_EN.txt	FENCE	2	0	10	[0, 0, 0]	n/a	1	1	4600	LC1	LC2	250.0	50	230	300	FR2	0	R1150J
1008.101	1.6	1402771	WORD	n/a	wordpools/wordpool_EN.txt	WEED	3	1	10	[0, 0, 0]	n/a	0	1	0	n/a	n/a	0.0	0	0	0	FR2	0	R1150J
1010.485	1.6	1405155	WORD	n/a	wordpools/wordpool_EN.txt	BENCH	4	0	10	[0, 0, 0]	n/a	0	1	0	n/a	n/a	0.0	0	0	0	FR2	0	R1150J
1012.746	4.6	1407416	STIM_ON	n/a	n/a	n/a	-999	0	10	[0, 0, 0]	n/a	1	1	4600	LC1	LC2	250.0	50	230	300	FR2	0	R1150J
1012.95	1.6	1407620	WORD	n/a	wordpools/wordpool_EN.txt	WALL	5	0	10	[0, 0, 0]	n/a	1	1	4600	LC1	LC2	250.0	50	230	300	FR2	0	R1150J
1015.518	1.6	1410188	WORD	n/a	wordpools/wordpool_EN.txt	BAND	6	0	10	[0, 0, 0]	n/a	1	1	4600	LC1	LC2	250.0	50	230	300	FR2	0	R1150J
1017.951	1.6	1412621	WORD	n/a	wordpools/wordpool_EN.txt	TOE	7	1	10	[0, 0, 0]	n/a	0	1	0	n/a	n/a	0.0	0	0	0	FR2	0	R1150J
1020.386	1.6	1415056	WORD	n/a	wordpools/wordpool_EN.txt	HORN	8	0	10	[0, 0, 0]	n/a	0	1	0	n/a	n/a	0.0	0	0	0	FR2	0	R1150J
1022.776	4.6	1417446	STIM_ON	n/a	n/a	n/a	-999	0	10	[0, 0, 0]	n/a	1	1	4600	LC1	LC2	250.0	50	230	300	FR2	0	R1150J
1022.986	1.6	1417656	WORD	n/a	wordpools/wordpool_EN.txt	HAWK	9	0	10	[0, 0, 0]	n/a	1	1	4600	LC1	LC2	250.0	50	230	300	FR2	0	R1150J
1025.586	1.6	1420257	WORD	n/a	wordpools/wordpool_EN.txt	NOSE	10	1	10	[0, 0, 0]	n/a	1	1	4600	LC1	LC2	250.0	50	230	300	FR2	0	R1150J
1028.137	1.6	1422808	WORD	n/a	wordpools/wordpool_EN.txt	CLIFF	11	1	10	[0, 0, 0]	n/a	0	1	0	n/a	n/a	0.0	0	0	0	FR2	0	R1150J
1030.737	1.6	1425408	WORD	n/a	wordpools/wordpool_EN.txt	HAND	12	0	10	[0, 0, 0]	n/a	0	1	0	n/a	n/a	0.0	0	0	0	FR2	0	R1150J
1032.354	0.001	1427025	DISTRACT_START	n/a	n/a	n/a	-999	0	10	[0, 0, 0]	n/a	0	1	0	n/a	n/a	0.0	0	0	0	FR2	0	R1150J
1032.355	0.016	1427026	START	n/a	n/a	n/a	-999	0	10	[-999, -999, -999]	n/a	0	1	0	n/a	n/a	0.0	0	0	0	FR2	0	R1150J
1032.371	3.167	1427042	PROB	3.144	n/a	n/a	-999	0	10	[5, 2, 1]	9	0	1	0	n/a	n/a	0.0	0	0	0	FR2	0	R1150J
1035.538	2.5	1430209	PROB	2.465	n/a	n/a	-999	0	10	[6, 8, 4]	18	0	1	0	n/a	n/a	0.0	0	0	0	FR2	0	R1150J
1038.038	2.35	1432709	PROB	2.325	n/a	n/a	-999	0	10	[4, 3, 4]	11	0	1	0	n/a	n/a	0.0	0	0	0	FR2	0	R1150J
1040.388	2.284	1435059	PROB	2.263	n/a	n/a	-999	0	10	[9, 9, 9]	27	0	1	0	n/a	n/a	0.0	0	0	0	FR2	0	R1150J
1042.672	2.116	1437343	PROB	2.083	n/a	n/a	-999	0	10	[6, 2, 8]	16	0	1	0	n/a	n/a	0.0	0	0	0	FR2	0	R1150J
1044.788	2.402	1439459	PROB	2.375	n/a	n/a	-999	0	10	[2, 1, 6]	9	0	1	0	n/a	n/a	0.0	0	0	0	FR2	0	R1150J
1047.19	2.433	1441861	PROB	2.405	n/a	n/a	-999	0	10	[7, 5, 6]	18	0	1	0	n/a	n/a	0.0	0	0	0	FR2	0	R1150J
1049.623	2.74	1444294	PROB	2.74	n/a	n/a	-999	0	10	[5, 2, 2]	9	0	1	0	n/a	n/a	0.0	0	0	0	FR2	0	R1150J
1052.363	0.011	1447034	STOP	n/a	n/a	n/a	-999	0	10	[-999, -999, -999]	n/a	0	1	0	n/a	n/a	0.0	0	0	0	FR2	0	R1150J
1052.374	1.067	1447045	DISTRACT_END	n/a	n/a	n/a	-999	0	10	[0, 0, 0]	n/a	0	1	0	n/a	n/a	0.0	0	0	0	FR2	0	R1150J
1053.441	1.446	1448112	REC_START	n/a	n/a	n/a	-999	0	10	[0, 0, 0]	n/a	0	1	0	n/a	n/a	0.0	0	0	0	FR2	0	R1150J
1054.887	1.334	1449558	REC_WORD	1.446	n/a	TOE	7	1	10	[0, 0, 0]	n/a	0	1	0	n/a	n/a	0.0	0	0	0	FR2	0	R1150J
1056.221	2.337	1450892	REC_WORD	2.78	n/a	WEED	3	1	10	[0, 0, 0]	n/a	0	1	0	n/a	n/a	0.0	0	0	0	FR2	0	R1150J
1058.558	3.653	1453229	REC_WORD	5.117	n/a	NOSE	10	1	10	[0, 0, 0]	n/a	0	1	0	n/a	n/a	0.0	0	0	0	FR2	0	R1150J
1062.211	1.0	1456882	REC_WORD_VV	8.77	n/a	<>	-999	0	10	[0, 0, 0]	n/a	0	1	0	n/a	n/a	0.0	0	0	0	FR2	0	R1150J
1063.211	2.052	1457882	REC_WORD_VV	9.77	n/a	<>	-999	0	10	[0, 0, 0]	n/a	0	1	0	n/a	n/a	0.0	0	0	0	FR2	0	R1150J
1065.263	18.188	1459934	REC_WORD	11.822	n/a	CLIFF	11	1	10	[0, 0, 0]	n/a	0	1	0	n/a	n/a	0.0	0	0	0	FR2	0	R1150J
1083.451	2.392	1478122	REC_END	n/a	n/a	n/a	-999	0	10	[0, 0, 0]	n/a	0	1	0	n/a	n/a	0.0	0	0	0	FR2	0	R1150J
1085.843	0.0	1480514	TRIAL	n/a	n/a	n/a	-999	0	11	[0, 0, 0]	n/a	0	1	0	n/a	n/a	0.0	0	0	0	FR2	0	R1150J
1085.843	10.0	1480514	COUNTDOWN_START	n/a	n/a	n/a	-999	0	11	[0, 0, 0]	n/a	0	1	0	n/a	n/a	0.0	0	0	0	FR2	0	R1150J
1096.271	0.008	1490943	COUNTDOWN_END	n/a	n/a	n/a	-999	0	11	[0, 0, 0]	n/a	0	1	0	n/a	n/a	0.0	0	0	0	FR2	0	R1150J
1096.279	1.6	1490951	ORIENT	n/a	n/a	n/a	-999	0	11	[0, 0, 0]	n/a	0	1	0	n/a	n/a	0.0	0	0	0	FR2	0	R1150J
1098.537	4.6	1493209	STIM_ON	n/a	n/a	n/a	-999	0	11	[0, 0, 0]	n/a	1	1	4600	LC1	LC2	250.0	50	230	300	FR2	0	R1150J
1098.746	1.6	1493418	WORD	n/a	wordpools/wordpool_EN.txt	JEEP	1	0	11	[0, 0, 0]	n/a	1	1	4600	LC1	LC2	250.0	50	230	300	FR2	0	R1150J
1101.263	1.6	1495935	WORD	n/a	wordpools/wordpool_EN.txt	SHIRT	2	0	11	[0, 0, 0]	n/a	1	1	4600	LC1	LC2	250.0	50	230	300	FR2	0	R1150J
1103.829	1.6	1498501	WORD	n/a	wordpools/wordpool_EN.txt	CAKE	3	0	11	[0, 0, 0]	n/a	0	1	0	n/a	n/a	0.0	0	0	0	FR2	0	R1150J
1106.247	1.6	1500919	WORD	n/a	wordpools/wordpool_EN.txt	PARK	4	1	11	[0, 0, 0]	n/a	0	1	0	n/a	n/a	0.0	0	0	0	FR2	0	R1150J
1108.465	4.6	1503137	STIM_ON	n/a	n/a	n/a	-999	0	11	[0, 0, 0]	n/a	1	1	4600	LC1	LC2	250.0	50	230	300	FR2	0	R1150J
1108.681	1.6	1503353	WORD	n/a	wordpools/wordpool_EN.txt	PIG	5	1	11	[0, 0, 0]	n/a	1	1	4600	LC1	LC2	250.0	50	230	300	FR2	0	R1150J
1111.282	1.6	1505954	WORD	n/a	wordpools/wordpool_EN.txt	PLANE	6	0	11	[0, 0, 0]	n/a	1	1	4600	LC1	LC2	250.0	50	230	300	FR2	0	R1150J
1113.814	1.6	1508486	WORD	n/a	wordpools/wordpool_EN.txt	MAT	7	1	11	[0, 0, 0]	n/a	0	1	0	n/a	n/a	0.0	0	0	0	FR2	0	R1150J
1116.399	1.6	1511071	WORD	n/a	wordpools/wordpool_EN.txt	TRAIN	8	0	11	[0, 0, 0]	n/a	0	1	0	n/a	n/a	0.0	0	0	0	FR2	0	R1150J
1118.618	4.6	1513290	STIM_ON	n/a	n/a	n/a	-999	0	11	[0, 0, 0]	n/a	1	1	4600	LC1	LC2	250.0	50	230	300	FR2	0	R1150J
1118.831	1.6	1513503	WORD	n/a	wordpools/wordpool_EN.txt	STEAK	9	1	11	[0, 0, 0]	n/a	1	1	4600	LC1	LC2	250.0	50	230	300	FR2	0	R1150J
1121.233	1.6	1515905	WORD	n/a	wordpools/wordpool_EN.txt	PURSE	10	0	11	[0, 0, 0]	n/a	1	1	4600	LC1	LC2	250.0	50	230	300	FR2	0	R1150J
1123.666	1.6	1518338	WORD	n/a	wordpools/wordpool_EN.txt	FUDGE	11	0	11	[0, 0, 0]	n/a	0	1	0	n/a	n/a	0.0	0	0	0	FR2	0	R1150J
1126.283	1.6	1520955	WORD	n/a	wordpools/wordpool_EN.txt	PET	12	0	11	[0, 0, 0]	n/a	0	1	0	n/a	n/a	0.0	0	0	0	FR2	0	R1150J
1127.899	0.001	1522571	DISTRACT_START	n/a	n/a	n/a	-999	0	11	[0, 0, 0]	n/a	0	1	0	n/a	n/a	0.0	0	0	0	FR2	0	R1150J
1127.9	0.016	1522572	START	n/a	n/a	n/a	-999	0	11	[-999, -999, -999]	n/a	0	1	0	n/a	n/a	0.0	0	0	0	FR2	0	R1150J
1127.916	2.485	1522588	PROB	2.452	n/a	n/a	-999	0	11	[8, 1, 1]	10	0	1	0	n/a	n/a	0.0	0	0	0	FR2	0	R1150J
1130.401	2.9	1525073	PROB	2.879	n/a	n/a	-999	0	11	[9, 2, 7]	18	0	1	0	n/a	n/a	0.0	0	0	0	FR2	0	R1150J
1133.301	4.834	1527973	PROB	4.811	n/a	n/a	-999	0	11	[9, 6, 7]	26	0	1	0	n/a	n/a	0.0	0	0	0	FR2	0	R1150J
1138.135	2.683	1532807	PROB	2.656	n/a	n/a	-999	0	11	[4, 3, 1]	8	0	1	0	n/a	n/a	0.0	0	0	0	FR2	0	R1150J
1140.818	2.983	1535490	PROB	2.949	n/a	n/a	-999	0	11	[4, 3, 4]	11	0	1	0	n/a	n/a	0.0	0	0	0	FR2	0	R1150J
1143.801	4.034	1538473	PROB	3.998	n/a	n/a	-999	0	11	[8, 5, 7]	23	0	1	0	n/a	n/a	0.0	0	0	0	FR2	0	R1150J
1147.835	2.405	1542507	PROB	2.405	n/a	n/a	-999	0	11	[2, 8, 8]	18	0	1	0	n/a	n/a	0.0	0	0	0	FR2	0	R1150J
1150.24	0.013	1544912	STOP	n/a	n/a	n/a	-999	0	11	[-999, -999, -999]	n/a	0	1	0	n/a	n/a	0.0	0	0	0	FR2	0	R1150J
1150.253	1.101	1544925	DISTRACT_END	n/a	n/a	n/a	-999	0	11	[0, 0, 0]	n/a	0	1	0	n/a	n/a	0.0	0	0	0	FR2	0	R1150J
1151.354	1.498	1546026	REC_START	n/a	n/a	n/a	-999	0	11	[0, 0, 0]	n/a	0	1	0	n/a	n/a	0.0	0	0	0	FR2	0	R1150J
1152.852	0.98	1547524	REC_WORD	1.498	n/a	PARK	4	1	11	[0, 0, 0]	n/a	0	1	0	n/a	n/a	0.0	0	0	0	FR2	0	R1150J
1153.832	1.12	1548504	REC_WORD	2.478	n/a	PIG	5	1	11	[0, 0, 0]	n/a	0	1	0	n/a	n/a	0.0	0	0	0	FR2	0	R1150J
1154.952	1.063	1549624	REC_WORD	3.598	n/a	MAT	7	1	11	[0, 0, 0]	n/a	0	1	0	n/a	n/a	0.0	0	0	0	FR2	0	R1150J
1156.015	19.464	1550687	REC_WORD	4.661	n/a	STEAK	9	1	11	[0, 0, 0]	n/a	0	1	0	n/a	n/a	0.0	0	0	0	FR2	0	R1150J
1175.479	5.884	1570152	REC_WORD_VV	24.125	n/a	<>	-999	0	11	[0, 0, 0]	n/a	0	1	0	n/a	n/a	0.0	0	0	0	FR2	0	R1150J
1181.363	1.761	1576036	REC_END	n/a	n/a	n/a	-999	0	11	[0, 0, 0]	n/a	0	1	0	n/a	n/a	0.0	0	0	0	FR2	0	R1150J
1183.124	0.0	1577797	TRIAL	n/a	n/a	n/a	-999	0	12	[0, 0, 0]	n/a	0	1	0	n/a	n/a	0.0	0	0	0	FR2	0	R1150J
1183.124	10.0	1577797	COUNTDOWN_START	n/a	n/a	n/a	-999	0	12	[0, 0, 0]	n/a	0	1	0	n/a	n/a	0.0	0	0	0	FR2	0	R1150J
1193.552	0.007	1588225	COUNTDOWN_END	n/a	n/a	n/a	-999	0	12	[0, 0, 0]	n/a	0	1	0	n/a	n/a	0.0	0	0	0	FR2	0	R1150J
1193.559	1.6	1588232	ORIENT	n/a	n/a	n/a	-999	0	12	[0, 0, 0]	n/a	0	1	0	n/a	n/a	0.0	0	0	0	FR2	0	R1150J
1195.993	1.6	1590666	WORD	n/a	wordpools/wordpool_EN.txt	PHONE	1	0	12	[0, 0, 0]	n/a	0	1	0	n/a	n/a	0.0	0	0	0	FR2	0	R1150J
1198.576	1.6	1593249	WORD	n/a	wordpools/wordpool_EN.txt	TOAST	2	0	12	[0, 0, 0]	n/a	0	1	0	n/a	n/a	0.0	0	0	0	FR2	0	R1150J
1200.951	4.6	1595624	STIM_ON	n/a	n/a	n/a	-999	0	12	[0, 0, 0]	n/a	1	1	4600	LC1	LC2	250.0	50	230	300	FR2	0	R1150J
1201.16	1.6	1595833	WORD	n/a	wordpools/wordpool_EN.txt	TANK	3	0	12	[0, 0, 0]	n/a	1	1	4600	LC1	LC2	250.0	50	230	300	FR2	0	R1150J
1203.776	1.6	1598449	WORD	n/a	wordpools/wordpool_EN.txt	PEA	4	0	12	[0, 0, 0]	n/a	1	1	4600	LC1	LC2	250.0	50	230	300	FR2	0	R1150J
1206.377	1.6	1601050	WORD	n/a	wordpools/wordpool_EN.txt	CHAIR	5	0	12	[0, 0, 0]	n/a	0	1	0	n/a	n/a	0.0	0	0	0	FR2	0	R1150J
1208.96	1.6	1603633	WORD	n/a	wordpools/wordpool_EN.txt	BEAN	6	0	12	[0, 0, 0]	n/a	0	1	0	n/a	n/a	0.0	0	0	0	FR2	0	R1150J
1211.33	4.6	1606003	STIM_ON	n/a	n/a	n/a	-999	0	12	[0, 0, 0]	n/a	1	1	4600	LC1	LC2	250.0	50	230	300	FR2	0	R1150J
1211.545	1.6	1606218	WORD	n/a	wordpools/wordpool_EN.txt	POOL	7	0	12	[0, 0, 0]	n/a	1	1	4600	LC1	LC2	250.0	50	230	300	FR2	0	R1150J
1214.028	1.6	1608701	WORD	n/a	wordpools/wordpool_EN.txt	YARD	8	1	12	[0, 0, 0]	n/a	1	1	4600	LC1	LC2	250.0	50	230	300	FR2	0	R1150J
1216.462	1.6	1611135	WORD	n/a	wordpools/wordpool_EN.txt	MUG	9	0	12	[0, 0, 0]	n/a	0	1	0	n/a	n/a	0.0	0	0	0	FR2	0	R1150J
1218.979	1.6	1613652	WORD	n/a	wordpools/wordpool_EN.txt	MAIL	10	0	12	[0, 0, 0]	n/a	0	1	0	n/a	n/a	0.0	0	0	0	FR2	0	R1150J
1221.28	4.6	1615953	STIM_ON	n/a	n/a	n/a	-999	0	12	[0, 0, 0]	n/a	1	1	4600	LC1	LC2	250.0	50	230	300	FR2	0	R1150J
1221.496	1.6	1616169	WORD	n/a	wordpools/wordpool_EN.txt	FAN	11	0	12	[0, 0, 0]	n/a	1	1	4600	LC1	LC2	250.0	50	230	300	FR2	0	R1150J
1223.996	1.6	1618669	WORD	n/a	wordpools/wordpool_EN.txt	DIME	12	0	12	[0, 0, 0]	n/a	1	1	4600	LC1	LC2	250.0	50	230	300	FR2	0	R1150J
1225.613	0.001	1620286	DISTRACT_START	n/a	n/a	n/a	-999	0	12	[0, 0, 0]	n/a	1	1	4600	LC1	LC2	250.0	50	230	300	FR2	0	R1150J
1225.614	0.016	1620287	START	n/a	n/a	n/a	-999	0	12	[-999, -999, -999]	n/a	0	1	0	n/a	n/a	0.0	0	0	0	FR2	0	R1150J
1225.63	2.266	1620303	PROB	2.23	n/a	n/a	-999	0	12	[9, 1, 1]	11	0	1	0	n/a	n/a	0.0	0	0	0	FR2	0	R1150J
1227.896	5.884	1622569	PROB	5.861	n/a	n/a	-999	0	12	[9, 7, 6]	26	0	1	0	n/a	n/a	0.0	0	0	0	FR2	0	R1150J
1233.78	3.001	1628454	PROB	2.969	n/a	n/a	-999	0	12	[2, 8, 8]	18	0	1	0	n/a	n/a	0.0	0	0	0	FR2	0	R1150J
1236.781	3.351	1631455	PROB	3.319	n/a	n/a	-999	0	12	[1, 5, 2]	8	0	1	0	n/a	n/a	0.0	0	0	0	FR2	0	R1150J
1240.132	2.501	1634806	PROB	2.473	n/a	n/a	-999	0	12	[2, 3, 8]	13	0	1	0	n/a	n/a	0.0	0	0	0	FR2	0	R1150J
1242.633	3.755	1637307	PROB	3.755	n/a	n/a	-999	0	12	[4, 1, 2]	7	0	1	0	n/a	n/a	0.0	0	0	0	FR2	0	R1150J
1246.388	0.011	1641062	STOP	n/a	n/a	n/a	-999	0	12	[-999, -999, -999]	n/a	0	1	0	n/a	n/a	0.0	0	0	0	FR2	0	R1150J
1246.399	1.101	1641073	DISTRACT_END	n/a	n/a	n/a	-999	0	12	[0, 0, 0]	n/a	0	1	0	n/a	n/a	0.0	0	0	0	FR2	0	R1150J
1247.5	2.263	1642174	REC_START	n/a	n/a	n/a	-999	0	12	[0, 0, 0]	n/a	0	1	0	n/a	n/a	0.0	0	0	0	FR2	0	R1150J
1249.763	4.221	1644437	REC_WORD	2.263	n/a	YARD	8	1	12	[0, 0, 0]	n/a	0	1	0	n/a	n/a	0.0	0	0	0	FR2	0	R1150J
1253.984	23.53	1648658	REC_WORD	6.484	n/a	PIG	-999	0	12	[0, 0, 0]	n/a	0	1	0	n/a	n/a	0.0	0	0	0	FR2	0	R1150J
1277.514	2.69	1672188	REC_END	n/a	n/a	n/a	-999	0	12	[0, 0, 0]	n/a	0	1	0	n/a	n/a	0.0	0	0	0	FR2	0	R1150J
1280.204	0.0	1674878	TRIAL	n/a	n/a	n/a	-999	0	13	[0, 0, 0]	n/a	0	1	0	n/a	n/a	0.0	0	0	0	FR2	0	R1150J
1280.204	10.0	1674878	COUNTDOWN_START	n/a	n/a	n/a	-999	0	13	[0, 0, 0]	n/a	0	1	0	n/a	n/a	0.0	0	0	0	FR2	0	R1150J
1290.632	0.007	1685306	COUNTDOWN_END	n/a	n/a	n/a	-999	0	13	[0, 0, 0]	n/a	0	1	0	n/a	n/a	0.0	0	0	0	FR2	0	R1150J
1290.639	1.6	1685313	ORIENT	n/a	n/a	n/a	-999	0	13	[0, 0, 0]	n/a	0	1	0	n/a	n/a	0.0	0	0	0	FR2	0	R1150J
1293.003	4.6	1687677	STIM_ON	n/a	n/a	n/a	-999	0	13	[0, 0, 0]	n/a	1	1	4600	LC1	LC2	250.0	50	230	300	FR2	0	R1150J
1293.205	1.6	1687879	WORD	n/a	wordpools/wordpool_EN.txt	INK	1	0	13	[0, 0, 0]	n/a	1	1	4600	LC1	LC2	250.0	50	230	300	FR2	0	R1150J
1295.689	1.6	1690363	WORD	n/a	wordpools/wordpool_EN.txt	TEA	2	1	13	[0, 0, 0]	n/a	1	1	4600	LC1	LC2	250.0	50	230	300	FR2	0	R1150J
1298.223	1.6	1692898	WORD	n/a	wordpools/wordpool_EN.txt	TOY	3	1	13	[0, 0, 0]	n/a	0	1	0	n/a	n/a	0.0	0	0	0	FR2	0	R1150J
1300.674	1.6	1695349	WORD	n/a	wordpools/wordpool_EN.txt	MULE	4	0	13	[0, 0, 0]	n/a	0	1	0	n/a	n/a	0.0	0	0	0	FR2	0	R1150J
1302.958	4.6	1697633	STIM_ON	n/a	n/a	n/a	-999	0	13	[0, 0, 0]	n/a	1	1	4600	LC1	LC2	250.0	50	230	300	FR2	0	R1150J
1303.174	1.6	1697849	WORD	n/a	wordpools/wordpool_EN.txt	BOY	5	1	13	[0, 0, 0]	n/a	1	1	4600	LC1	LC2	250.0	50	230	300	FR2	0	R1150J
1305.691	1.6	1700366	WORD	n/a	wordpools/wordpool_EN.txt	TIE	6	0	13	[0, 0, 0]	n/a	1	1	4600	LC1	LC2	250.0	50	230	300	FR2	0	R1150J
1308.224	1.6	1702899	WORD	n/a	wordpools/wordpool_EN.txt	CLOTH	7	0	13	[0, 0, 0]	n/a	0	1	0	n/a	n/a	0.0	0	0	0	FR2	0	R1150J
1310.708	1.6	1705383	WORD	n/a	wordpools/wordpool_EN.txt	SPRING	8	0	13	[0, 0, 0]	n/a	0	1	0	n/a	n/a	0.0	0	0	0	FR2	0	R1150J
1313.098	4.6	1707773	STIM_ON	n/a	n/a	n/a	-999	0	13	[0, 0, 0]	n/a	1	1	4600	LC1	LC2	250.0	50	230	300	FR2	0	R1150J
1313.308	1.6	1707983	WORD	n/a	wordpools/wordpool_EN.txt	SQUARE	9	0	13	[0, 0, 0]	n/a	1	1	4600	LC1	LC2	250.0	50	230	300	FR2	0	R1150J
1315.759	1.6	1710434	WORD	n/a	wordpools/wordpool_EN.txt	PEACH	10	0	13	[0, 0, 0]	n/a	1	1	4600	LC1	LC2	250.0	50	230	300	FR2	0	R1150J
1318.342	1.6	1713017	WORD	n/a	wordpools/wordpool_EN.txt	TOOL	11	1	13	[0, 0, 0]	n/a	0	1	0	n/a	n/a	0.0	0	0	0	FR2	0	R1150J
1320.825	1.6	1715500	WORD	n/a	wordpools/wordpool_EN.txt	PLATE	12	0	13	[0, 0, 0]	n/a	0	1	0	n/a	n/a	0.0	0	0	0	FR2	0	R1150J
1322.426	0.001	1717101	DISTRACT_START	n/a	n/a	n/a	-999	0	13	[0, 0, 0]	n/a	0	1	0	n/a	n/a	0.0	0	0	0	FR2	0	R1150J
1322.427	0.016	1717102	START	n/a	n/a	n/a	-999	0	13	[-999, -999, -999]	n/a	0	1	0	n/a	n/a	0.0	0	0	0	FR2	0	R1150J
1322.443	3.1	1717118	PROB	3.078	n/a	n/a	-999	0	13	[7, 3, 6]	16	0	1	0	n/a	n/a	0.0	0	0	0	FR2	0	R1150J
1325.543	1.684	1720218	PROB	1.659	n/a	n/a	-999	0	13	[1, 7, 3]	11	0	1	0	n/a	n/a	0.0	0	0	0	FR2	0	R1150J
1327.227	2.25	1721902	PROB	2.214	n/a	n/a	-999	0	13	[4, 4, 8]	20	0	1	0	n/a	n/a	0.0	0	0	0	FR2	0	R1150J
1329.477	3.001	1724152	PROB	2.98	n/a	n/a	-999	0	13	[3, 2, 7]	12	0	1	0	n/a	n/a	0.0	0	0	0	FR2	0	R1150J
1332.478	4.683	1727153	PROB	4.659	n/a	n/a	-999	0	13	[5, 9, 9]	23	0	1	0	n/a	n/a	0.0	0	0	0	FR2	0	R1150J
1337.161	2.234	1731836	PROB	2.2	n/a	n/a	-999	0	13	[6, 4, 4]	14	0	1	0	n/a	n/a	0.0	0	0	0	FR2	0	R1150J
1339.395	1.884	1734070	PROB	1.854	n/a	n/a	-999	0	13	[1, 7, 7]	15	0	1	0	n/a	n/a	0.0	0	0	0	FR2	0	R1150J
1341.279	2.466	1735954	PROB	2.466	n/a	n/a	-999	0	13	[2, 9, 9]	20	0	1	0	n/a	n/a	0.0	0	0	0	FR2	0	R1150J
1343.745	0.016	1738420	STOP	n/a	n/a	n/a	-999	0	13	[-999, -999, -999]	n/a	0	1	0	n/a	n/a	0.0	0	0	0	FR2	0	R1150J
1343.761	1.072	1738436	DISTRACT_END	n/a	n/a	n/a	-999	0	13	[0, 0, 0]	n/a	0	1	0	n/a	n/a	0.0	0	0	0	FR2	0	R1150J
1344.833	1.323	1739508	REC_START	n/a	n/a	n/a	-999	0	13	[0, 0, 0]	n/a	0	1	0	n/a	n/a	0.0	0	0	0	FR2	0	R1150J
1346.156	0.825	1740831	REC_WORD	1.323	n/a	TEA	2	1	13	[0, 0, 0]	n/a	0	1	0	n/a	n/a	0.0	0	0	0	FR2	0	R1150J
1346.981	0.932	1741656	REC_WORD	2.148	n/a	TOY	3	1	13	[0, 0, 0]	n/a	0	1	0	n/a	n/a	0.0	0	0	0	FR2	0	R1150J
1347.913	3.817	1742588	REC_WORD	3.08	n/a	BOY	5	1	13	[0, 0, 0]	n/a	0	1	0	n/a	n/a	0.0	0	0	0	FR2	0	R1150J
1351.73	23.109	1746405	REC_WORD	6.897	n/a	TOOL	11	1	13	[0, 0, 0]	n/a	0	1	0	n/a	n/a	0.0	0	0	0	FR2	0	R1150J
1374.839	1.844	1769515	REC_END	n/a	n/a	n/a	-999	0	13	[0, 0, 0]	n/a	0	1	0	n/a	n/a	0.0	0	0	0	FR2	0	R1150J
1376.683	10.0	1771359	COUNTDOWN_START	n/a	n/a	n/a	-999	0	14	[0, 0, 0]	n/a	0	1	0	n/a	n/a	0.0	0	0	0	FR2	0	R1150J
1376.684	10.427	1771360	TRIAL	n/a	n/a	n/a	-999	0	14	[0, 0, 0]	n/a	0	1	0	n/a	n/a	0.0	0	0	0	FR2	0	R1150J
1387.111	0.007	1781787	COUNTDOWN_END	n/a	n/a	n/a	-999	0	14	[0, 0, 0]	n/a	0	1	0	n/a	n/a	0.0	0	0	0	FR2	0	R1150J
1387.118	1.6	1781794	ORIENT	n/a	n/a	n/a	-999	0	14	[0, 0, 0]	n/a	0	1	0	n/a	n/a	0.0	0	0	0	FR2	0	R1150J
1389.343	4.6	1784019	STIM_ON	n/a	n/a	n/a	-999	0	14	[0, 0, 0]	n/a	1	1	4600	LC1	LC2	250.0	50	230	300	FR2	0	R1150J
1389.552	1.6	1784228	WORD	n/a	wordpools/wordpool_EN.txt	MOUSE	1	0	14	[0, 0, 0]	n/a	1	1	4600	LC1	LC2	250.0	50	230	300	FR2	0	R1150J
1392.102	1.6	1786778	WORD	n/a	wordpools/wordpool_EN.txt	CROW	2	0	14	[0, 0, 0]	n/a	1	1	4600	LC1	LC2	250.0	50	230	300	FR2	0	R1150J
1394.669	1.6	1789345	WORD	n/a	wordpools/wordpool_EN.txt	ROAD	3	0	14	[0, 0, 0]	n/a	0	1	0	n/a	n/a	0.0	0	0	0	FR2	0	R1150J
1397.103	1.6	1791779	WORD	n/a	wordpools/wordpool_EN.txt	GRASS	4	0	14	[0, 0, 0]	n/a	0	1	0	n/a	n/a	0.0	0	0	0	FR2	0	R1150J
1399.292	4.6	1793968	STIM_ON	n/a	n/a	n/a	-999	0	14	[0, 0, 0]	n/a	1	1	4600	LC1	LC2	250.0	50	230	300	FR2	0	R1150J
1399.503	1.6	1794179	WORD	n/a	wordpools/wordpool_EN.txt	DRUM	5	0	14	[0, 0, 0]	n/a	1	1	4600	LC1	LC2	250.0	50	230	300	FR2	0	R1150J
1402.02	1.6	1796696	WORD	n/a	wordpools/wordpool_EN.txt	WEB	6	0	14	[0, 0, 0]	n/a	1	1	4600	LC1	LC2	250.0	50	230	300	FR2	0	R1150J
1404.587	1.6	1799263	WORD	n/a	wordpools/wordpool_EN.txt	FLUTE	7	0	14	[0, 0, 0]	n/a	0	1	0	n/a	n/a	0.0	0	0	0	FR2	0	R1150J
1407.188	1.6	1801864	WORD	n/a	wordpools/wordpool_EN.txt	RAIN	8	0	14	[0, 0, 0]	n/a	0	1	0	n/a	n/a	0.0	0	0	0	FR2	0	R1150J
1409.445	4.6	1804121	STIM_ON	n/a	n/a	n/a	-999	0	14	[0, 0, 0]	n/a	1	1	4600	LC1	LC2	250.0	50	230	300	FR2	0	R1150J
1409.655	1.6	1804331	WORD	n/a	wordpools/wordpool_EN.txt	CALF	9	0	14	[0, 0, 0]	n/a	1	1	4600	LC1	LC2	250.0	50	230	300	FR2	0	R1150J
1412.272	1.6	1806948	WORD	n/a	wordpools/wordpool_EN.txt	PRINCE	10	0	14	[0, 0, 0]	n/a	1	1	4600	LC1	LC2	250.0	50	230	300	FR2	0	R1150J
1414.838	1.6	1809514	WORD	n/a	wordpools/wordpool_EN.txt	SHELL	11	0	14	[0, 0, 0]	n/a	0	1	0	n/a	n/a	0.0	0	0	0	FR2	0	R1150J
1417.322	1.6	1811998	WORD	n/a	wordpools/wordpool_EN.txt	WOLF	12	0	14	[0, 0, 0]	n/a	0	1	0	n/a	n/a	0.0	0	0	0	FR2	0	R1150J
1418.938	0.001	1813614	DISTRACT_START	n/a	n/a	n/a	-999	0	14	[0, 0, 0]	n/a	0	1	0	n/a	n/a	0.0	0	0	0	FR2	0	R1150J
1418.939	0.016	1813615	START	n/a	n/a	n/a	-999	0	14	[-999, -999, -999]	n/a	0	1	0	n/a	n/a	0.0	0	0	0	FR2	0	R1150J
1418.955	4.268	1813631	PROB	4.235	n/a	n/a	-999	0	14	[7, 7, 9]	23	0	1	0	n/a	n/a	0.0	0	0	0	FR2	0	R1150J
1423.223	2.633	1817899	PROB	2.606	n/a	n/a	-999	0	14	[3, 7, 4]	14	0	1	0	n/a	n/a	0.0	0	0	0	FR2	0	R1150J
1425.856	2.801	1820532	PROB	2.766	n/a	n/a	-999	0	14	[9, 9, 5]	23	0	1	0	n/a	n/a	0.0	0	0	0	FR2	0	R1150J
1428.657	1.701	1823333	PROB	1.669	n/a	n/a	-999	0	14	[5, 5, 3]	13	0	1	0	n/a	n/a	0.0	0	0	0	FR2	0	R1150J
1430.358	3.283	1825034	PROB	3.256	n/a	n/a	-999	0	14	[6, 5, 9]	20	0	1	0	n/a	n/a	0.0	0	0	0	FR2	0	R1150J
1433.641	2.467	1828318	PROB	2.437	n/a	n/a	-999	0	14	[8, 5, 9]	22	0	1	0	n/a	n/a	0.0	0	0	0	FR2	0	R1150J
1436.108	2.683	1830785	PROB	2.65	n/a	n/a	-999	0	14	[8, 1, 2]	11	0	1	0	n/a	n/a	0.0	0	0	0	FR2	0	R1150J
1438.791	3.278	1833468	PROB	3.278	n/a	n/a	-999	0	14	[2, 4, 3]	9	0	1	0	n/a	n/a	0.0	0	0	0	FR2	0	R1150J
1442.069	0.007	1836746	STOP	n/a	n/a	n/a	-999	0	14	[-999, -999, -999]	n/a	0	1	0	n/a	n/a	0.0	0	0	0	FR2	0	R1150J
1442.076	1.117	1836753	DISTRACT_END	n/a	n/a	n/a	-999	0	14	[0, 0, 0]	n/a	0	1	0	n/a	n/a	0.0	0	0	0	FR2	0	R1150J
1443.193	8.572	1837870	REC_START	n/a	n/a	n/a	-999	0	14	[0, 0, 0]	n/a	0	1	0	n/a	n/a	0.0	0	0	0	FR2	0	R1150J
1451.765	21.438	1846442	REC_WORD	8.572	n/a	RICE	-999	0	14	[0, 0, 0]	n/a	0	1	0	n/a	n/a	0.0	0	0	0	FR2	0	R1150J
1473.203	2.227	1867880	REC_END	n/a	n/a	n/a	-999	0	14	[0, 0, 0]	n/a	0	1	0	n/a	n/a	0.0	0	0	0	FR2	0	R1150J
1475.43	0.0	1870107	TRIAL	n/a	n/a	n/a	-999	0	15	[0, 0, 0]	n/a	0	1	0	n/a	n/a	0.0	0	0	0	FR2	0	R1150J
1475.43	10.0	1870107	COUNTDOWN_START	n/a	n/a	n/a	-999	0	15	[0, 0, 0]	n/a	0	1	0	n/a	n/a	0.0	0	0	0	FR2	0	R1150J
1485.858	0.006	1880535	COUNTDOWN_END	n/a	n/a	n/a	-999	0	15	[0, 0, 0]	n/a	0	1	0	n/a	n/a	0.0	0	0	0	FR2	0	R1150J
1485.864	1.6	1880541	ORIENT	n/a	n/a	n/a	-999	0	15	[0, 0, 0]	n/a	0	1	0	n/a	n/a	0.0	0	0	0	FR2	0	R1150J
1488.482	1.6	1883159	WORD	n/a	wordpools/wordpool_EN.txt	FOG	1	0	15	[0, 0, 0]	n/a	0	1	0	n/a	n/a	0.0	0	0	0	FR2	0	R1150J
1490.999	1.6	1885676	WORD	n/a	wordpools/wordpool_EN.txt	BED	2	0	15	[0, 0, 0]	n/a	0	1	0	n/a	n/a	0.0	0	0	0	FR2	0	R1150J
1493.378	4.6	1888055	STIM_ON	n/a	n/a	n/a	-999	0	15	[0, 0, 0]	n/a	1	1	4600	LC1	LC2	250.0	50	230	300	FR2	0	R1150J
1493.582	1.6	1888259	WORD	n/a	wordpools/wordpool_EN.txt	GEESE	3	0	15	[0, 0, 0]	n/a	1	1	4600	LC1	LC2	250.0	50	230	300	FR2	0	R1150J
1495.999	1.6	1890676	WORD	n/a	wordpools/wordpool_EN.txt	COW	4	0	15	[0, 0, 0]	n/a	1	1	4600	LC1	LC2	250.0	50	230	300	FR2	0	R1150J
1498.583	1.6	1893260	WORD	n/a	wordpools/wordpool_EN.txt	BOARD	5	1	15	[0, 0, 0]	n/a	0	1	0	n/a	n/a	0.0	0	0	0	FR2	0	R1150J
1501.167	1.6	1895845	WORD	n/a	wordpools/wordpool_EN.txt	BRIDGE	6	0	15	[0, 0, 0]	n/a	0	1	0	n/a	n/a	0.0	0	0	0	FR2	0	R1150J
1503.381	4.6	1898059	STIM_ON	n/a	n/a	n/a	-999	0	15	[0, 0, 0]	n/a	1	1	4600	LC1	LC2	250.0	50	230	300	FR2	0	R1150J
1503.583	1.6	1898261	WORD	n/a	wordpools/wordpool_EN.txt	BOAT	7	1	15	[0, 0, 0]	n/a	1	1	4600	LC1	LC2	250.0	50	230	300	FR2	0	R1150J
1506.067	1.6	1900745	WORD	n/a	wordpools/wordpool_EN.txt	SLUSH	8	0	15	[0, 0, 0]	n/a	1	1	4600	LC1	LC2	250.0	50	230	300	FR2	0	R1150J
1508.618	1.6	1903296	WORD	n/a	wordpools/wordpool_EN.txt	VAN	9	0	15	[0, 0, 0]	n/a	0	1	0	n/a	n/a	0.0	0	0	0	FR2	0	R1150J
1511.051	1.6	1905729	WORD	n/a	wordpools/wordpool_EN.txt	GUARD	10	0	15	[0, 0, 0]	n/a	0	1	0	n/a	n/a	0.0	0	0	0	FR2	0	R1150J
1513.401	4.6	1908079	STIM_ON	n/a	n/a	n/a	-999	0	15	[0, 0, 0]	n/a	1	1	4600	LC1	LC2	250.0	50	230	300	FR2	0	R1150J
1513.618	1.6	1908296	WORD	n/a	wordpools/wordpool_EN.txt	LAMB	11	0	15	[0, 0, 0]	n/a	1	1	4600	LC1	LC2	250.0	50	230	300	FR2	0	R1150J
1516.085	1.6	1910763	WORD	n/a	wordpools/wordpool_EN.txt	STOVE	12	0	15	[0, 0, 0]	n/a	1	1	4600	LC1	LC2	250.0	50	230	300	FR2	0	R1150J
1517.702	0.001	1912380	DISTRACT_START	n/a	n/a	n/a	-999	0	15	[0, 0, 0]	n/a	1	1	4600	LC1	LC2	250.0	50	230	300	FR2	0	R1150J
1517.703	0.016	1912381	START	n/a	n/a	n/a	-999	0	15	[-999, -999, -999]	n/a	0	1	0	n/a	n/a	0.0	0	0	0	FR2	0	R1150J
1517.719	4.017	1912397	PROB	3.996	n/a	n/a	-999	0	15	[9, 5, 6]	20	0	1	0	n/a	n/a	0.0	0	0	0	FR2	0	R1150J
1521.736	2.984	1916414	PROB	2.955	n/a	n/a	-999	0	15	[8, 4, 8]	20	0	1	0	n/a	n/a	0.0	0	0	0	FR2	0	R1150J
1524.72	1.717	1919398	PROB	1.691	n/a	n/a	-999	0	15	[6, 5, 5]	16	0	1	0	n/a	n/a	0.0	0	0	0	FR2	0	R1150J
1526.437	1.833	1921115	PROB	1.798	n/a	n/a	-999	0	15	[1, 4, 4]	9	0	1	0	n/a	n/a	0.0	0	0	0	FR2	0	R1150J
1528.27	2.084	1922948	PROB	2.061	n/a	n/a	-999	0	15	[3, 5, 8]	16	0	1	0	n/a	n/a	0.0	0	0	0	FR2	0	R1150J
1530.354	3.067	1925032	PROB	3.04	n/a	n/a	-999	0	15	[8, 1, 4]	13	0	1	0	n/a	n/a	0.0	0	0	0	FR2	0	R1150J
1533.421	2.349	1928099	PROB	2.317	n/a	n/a	-999	0	15	[8, 1, 6]	15	0	1	0	n/a	n/a	0.0	0	0	0	FR2	0	R1150J
1535.77	1.96	1930448	PROB	1.96	n/a	n/a	-999	0	15	[9, 1, 5]	15	0	1	0	n/a	n/a	0.0	0	0	0	FR2	0	R1150J
1537.73	0.008	1932408	STOP	n/a	n/a	n/a	-999	0	15	[-999, -999, -999]	n/a	0	1	0	n/a	n/a	0.0	0	0	0	FR2	0	R1150J
1537.738	1.117	1932416	DISTRACT_END	n/a	n/a	n/a	-999	0	15	[0, 0, 0]	n/a	0	1	0	n/a	n/a	0.0	0	0	0	FR2	0	R1150J
1538.855	1.761	1933533	REC_START	n/a	n/a	n/a	-999	0	15	[0, 0, 0]	n/a	0	1	0	n/a	n/a	0.0	0	0	0	FR2	0	R1150J
1540.616	2.13	1935294	REC_WORD	1.761	n/a	BOAT	7	1	15	[0, 0, 0]	n/a	0	1	0	n/a	n/a	0.0	0	0	0	FR2	0	R1150J
1542.746	26.119	1937424	REC_WORD	3.891	n/a	BOARD	5	1	15	[0, 0, 0]	n/a	0	1	0	n/a	n/a	0.0	0	0	0	FR2	0	R1150J
1568.865	16.613	1963543	REC_END	n/a	n/a	n/a	-999	0	15	[0, 0, 0]	n/a	0	1	0	n/a	n/a	0.0	0	0	0	FR2	0	R1150J
1585.478	0.0	1980157	TRIAL	n/a	n/a	n/a	-999	0	16	[0, 0, 0]	n/a	0	1	0	n/a	n/a	0.0	0	0	0	FR2	0	R1150J
1585.478	10.0	1980157	COUNTDOWN_START	n/a	n/a	n/a	-999	0	16	[0, 0, 0]	n/a	0	1	0	n/a	n/a	0.0	0	0	0	FR2	0	R1150J
1595.906	0.006	1990585	COUNTDOWN_END	n/a	n/a	n/a	-999	0	16	[0, 0, 0]	n/a	0	1	0	n/a	n/a	0.0	0	0	0	FR2	0	R1150J
1595.912	1.6	1990591	ORIENT	n/a	n/a	n/a	-999	0	16	[0, 0, 0]	n/a	0	1	0	n/a	n/a	0.0	0	0	0	FR2	0	R1150J
1598.234	4.6	1992913	STIM_ON	n/a	n/a	n/a	-999	0	16	[0, 0, 0]	n/a	1	1	4600	LC1	LC2	250.0	50	230	300	FR2	0	R1150J
1598.447	1.6	1993126	WORD	n/a	wordpools/wordpool_EN.txt	MOON	1	1	16	[0, 0, 0]	n/a	1	1	4600	LC1	LC2	250.0	50	230	300	FR2	0	R1150J
1600.896	1.6	1995575	WORD	n/a	wordpools/wordpool_EN.txt	BEE	2	1	16	[0, 0, 0]	n/a	1	1	4600	LC1	LC2	250.0	50	230	300	FR2	0	R1150J
1603.28	1.6	1997959	WORD	n/a	wordpools/wordpool_EN.txt	SHIP	3	1	16	[0, 0, 0]	n/a	0	1	0	n/a	n/a	0.0	0	0	0	FR2	0	R1150J
1605.863	1.6	2000542	WORD	n/a	wordpools/wordpool_EN.txt	SAIL	4	1	16	[0, 0, 0]	n/a	0	1	0	n/a	n/a	0.0	0	0	0	FR2	0	R1150J
1608.044	4.6	2002723	STIM_ON	n/a	n/a	n/a	-999	0	16	[0, 0, 0]	n/a	1	1	4600	LC1	LC2	250.0	50	230	300	FR2	0	R1150J
1608.248	1.6	2002927	WORD	n/a	wordpools/wordpool_EN.txt	POLE	5	0	16	[0, 0, 0]	n/a	1	1	4600	LC1	LC2	250.0	50	230	300	FR2	0	R1150J
1610.748	1.6	2005427	WORD	n/a	wordpools/wordpool_EN.txt	EGG	6	0	16	[0, 0, 0]	n/a	1	1	4600	LC1	LC2	250.0	50	230	300	FR2	0	R1150J
1613.165	1.6	2007844	WORD	n/a	wordpools/wordpool_EN.txt	FORT	7	0	16	[0, 0, 0]	n/a	0	1	0	n/a	n/a	0.0	0	0	0	FR2	0	R1150J
1615.649	1.6	2010328	WORD	n/a	wordpools/wordpool_EN.txt	ZOO	8	1	16	[0, 0, 0]	n/a	0	1	0	n/a	n/a	0.0	0	0	0	FR2	0	R1150J
1617.948	4.6	2012627	STIM_ON	n/a	n/a	n/a	-999	0	16	[0, 0, 0]	n/a	1	1	4600	LC1	LC2	250.0	50	230	300	FR2	0	R1150J
1618.166	1.6	2012845	WORD	n/a	wordpools/wordpool_EN.txt	ROCK	9	0	16	[0, 0, 0]	n/a	1	1	4600	LC1	LC2	250.0	50	230	300	FR2	0	R1150J
1620.583	1.6	2015262	WORD	n/a	wordpools/wordpool_EN.txt	CAT	10	0	16	[0, 0, 0]	n/a	1	1	4600	LC1	LC2	250.0	50	230	300	FR2	0	R1150J
1623.166	1.6	2017845	WORD	n/a	wordpools/wordpool_EN.txt	SHARK	11	0	16	[0, 0, 0]	n/a	0	1	0	n/a	n/a	0.0	0	0	0	FR2	0	R1150J
1625.55	1.6	2020229	WORD	n/a	wordpools/wordpool_EN.txt	FILM	12	0	16	[0, 0, 0]	n/a	0	1	0	n/a	n/a	0.0	0	0	0	FR2	0	R1150J
1627.167	0.001	2021846	DISTRACT_START	n/a	n/a	n/a	-999	0	16	[0, 0, 0]	n/a	0	1	0	n/a	n/a	0.0	0	0	0	FR2	0	R1150J
1627.168	0.016	2021847	START	n/a	n/a	n/a	-999	0	16	[-999, -999, -999]	n/a	0	1	0	n/a	n/a	0.0	0	0	0	FR2	0	R1150J
1627.184	2.8	2021863	PROB	2.774	n/a	n/a	-999	0	16	[9, 3, 9]	21	0	1	0	n/a	n/a	0.0	0	0	0	FR2	0	R1150J
1629.984	4.55	2024663	PROB	4.518	n/a	n/a	-999	0	16	[4, 9, 5]	18	0	1	0	n/a	n/a	0.0	0	0	0	FR2	0	R1150J
1634.534	1.784	2029213	PROB	1.753	n/a	n/a	-999	0	16	[1, 1, 3]	5	0	1	0	n/a	n/a	0.0	0	0	0	FR2	0	R1150J
1636.318	1.884	2030997	PROB	1.857	n/a	n/a	-999	0	16	[8, 2, 6]	16	0	1	0	n/a	n/a	0.0	0	0	0	FR2	0	R1150J
1638.202	4.117	2032882	PROB	4.093	n/a	n/a	-999	0	16	[8, 9, 9]	26	0	1	0	n/a	n/a	0.0	0	0	0	FR2	0	R1150J
1642.319	2.384	2036999	PROB	2.352	n/a	n/a	-999	0	16	[1, 1, 6]	8	0	1	0	n/a	n/a	0.0	0	0	0	FR2	0	R1150J
1644.703	4.262	2039383	PROB	4.262	n/a	n/a	-999	0	16	[8, 5, 7]	22	0	1	0	n/a	n/a	0.0	0	0	0	FR2	0	R1150J
1648.965	0.005	2043645	STOP	n/a	n/a	n/a	-999	0	16	[-999, -999, -999]	n/a	0	1	0	n/a	n/a	0.0	0	0	0	FR2	0	R1150J
1648.97	1.168	2043650	DISTRACT_END	n/a	n/a	n/a	-999	0	16	[0, 0, 0]	n/a	0	1	0	n/a	n/a	0.0	0	0	0	FR2	0	R1150J
1650.138	2.351	2044818	REC_START	n/a	n/a	n/a	-999	0	16	[0, 0, 0]	n/a	0	1	0	n/a	n/a	0.0	0	0	0	FR2	0	R1150J
1652.489	0.439	2047169	REC_WORD	2.351	n/a	MOON	1	1	16	[0, 0, 0]	n/a	0	1	0	n/a	n/a	0.0	0	0	0	FR2	0	R1150J
1652.928	0.847	2047608	REC_WORD	2.79	n/a	SHIP	3	1	16	[0, 0, 0]	n/a	0	1	0	n/a	n/a	0.0	0	0	0	FR2	0	R1150J
1653.775	0.554	2048455	REC_WORD	3.637	n/a	BEE	2	1	16	[0, 0, 0]	n/a	0	1	0	n/a	n/a	0.0	0	0	0	FR2	0	R1150J
1654.329	14.33	2049009	REC_WORD	4.191	n/a	SAIL	4	1	16	[0, 0, 0]	n/a	0	1	0	n/a	n/a	0.0	0	0	0	FR2	0	R1150J
1668.659	2.532	2063339	REC_WORD_VV	18.521	n/a	<>	-999	0	16	[0, 0, 0]	n/a	0	1	0	n/a	n/a	0.0	0	0	0	FR2	0	R1150J
1671.191	8.957	2065871	REC_WORD	21.053	n/a	ZOO	8	1	16	[0, 0, 0]	n/a	0	1	0	n/a	n/a	0.0	0	0	0	FR2	0	R1150J
1680.148	3.226	2074828	REC_END	n/a	n/a	n/a	-999	0	16	[0, 0, 0]	n/a	0	1	0	n/a	n/a	0.0	0	0	0	FR2	0	R1150J
1683.374	10.0	2078054	COUNTDOWN_START	n/a	n/a	n/a	-999	0	17	[0, 0, 0]	n/a	0	0	0	n/a	n/a	0.0	0	0	0	FR2	0	R1150J
1683.375	10.427	2078055	TRIAL	n/a	n/a	n/a	-999	0	17	[0, 0, 0]	n/a	0	0	0	n/a	n/a	0.0	0	0	0	FR2	0	R1150J
1693.802	0.006	2088482	COUNTDOWN_END	n/a	n/a	n/a	-999	0	17	[0, 0, 0]	n/a	0	0	0	n/a	n/a	0.0	0	0	0	FR2	0	R1150J
1693.808	1.6	2088488	ORIENT	n/a	n/a	n/a	-999	0	17	[0, 0, 0]	n/a	0	0	0	n/a	n/a	0.0	0	0	0	FR2	0	R1150J
1696.209	1.6	2090889	WORD	n/a	wordpools/wordpool_EN.txt	FOX	1	1	17	[0, 0, 0]	n/a	0	0	0	n/a	n/a	0.0	0	0	0	FR2	0	R1150J
1698.66	1.6	2093340	WORD	n/a	wordpools/wordpool_EN.txt	TENT	2	0	17	[0, 0, 0]	n/a	0	0	0	n/a	n/a	0.0	0	0	0	FR2	0	R1150J
1701.06	1.6	2095740	WORD	n/a	wordpools/wordpool_EN.txt	PIE	3	0	17	[0, 0, 0]	n/a	0	0	0	n/a	n/a	0.0	0	0	0	FR2	0	R1150J
1703.461	1.6	2098141	WORD	n/a	wordpools/wordpool_EN.txt	CAVE	4	0	17	[0, 0, 0]	n/a	0	0	0	n/a	n/a	0.0	0	0	0	FR2	0	R1150J
1706.028	1.6	2100709	WORD	n/a	wordpools/wordpool_EN.txt	SOUP	5	0	17	[0, 0, 0]	n/a	0	0	0	n/a	n/a	0.0	0	0	0	FR2	0	R1150J
1708.411	1.6	2103092	WORD	n/a	wordpools/wordpool_EN.txt	STICK	6	0	17	[0, 0, 0]	n/a	0	0	0	n/a	n/a	0.0	0	0	0	FR2	0	R1150J
1710.961	1.6	2105642	WORD	n/a	wordpools/wordpool_EN.txt	MOOSE	7	0	17	[0, 0, 0]	n/a	0	0	0	n/a	n/a	0.0	0	0	0	FR2	0	R1150J
1713.345	1.6	2108026	WORD	n/a	wordpools/wordpool_EN.txt	SKUNK	8	0	17	[0, 0, 0]	n/a	0	0	0	n/a	n/a	0.0	0	0	0	FR2	0	R1150J
1715.928	1.6	2110609	WORD	n/a	wordpools/wordpool_EN.txt	SEAL	9	0	17	[0, 0, 0]	n/a	0	0	0	n/a	n/a	0.0	0	0	0	FR2	0	R1150J
1718.313	1.6	2112994	WORD	n/a	wordpools/wordpool_EN.txt	BREAD	10	0	17	[0, 0, 0]	n/a	0	0	0	n/a	n/a	0.0	0	0	0	FR2	0	R1150J
1720.696	1.6	2115377	WORD	n/a	wordpools/wordpool_EN.txt	GATE	11	0	17	[0, 0, 0]	n/a	0	0	0	n/a	n/a	0.0	0	0	0	FR2	0	R1150J
1723.313	1.6	2117994	WORD	n/a	wordpools/wordpool_EN.txt	TAIL	12	1	17	[0, 0, 0]	n/a	0	0	0	n/a	n/a	0.0	0	0	0	FR2	0	R1150J
1724.929	0.001	2119610	DISTRACT_START	n/a	n/a	n/a	-999	0	17	[0, 0, 0]	n/a	0	0	0	n/a	n/a	0.0	0	0	0	FR2	0	R1150J
1724.93	0.016	2119611	START	n/a	n/a	n/a	-999	0	17	[-999, -999, -999]	n/a	0	0	0	n/a	n/a	0.0	0	0	0	FR2	0	R1150J
1724.946	2.718	2119627	PROB	2.69	n/a	n/a	-999	0	17	[1, 2, 3]	6	0	0	0	n/a	n/a	0.0	0	0	0	FR2	0	R1150J
1727.664	1.817	2122345	PROB	1.788	n/a	n/a	-999	0	17	[4, 2, 1]	7	0	0	0	n/a	n/a	0.0	0	0	0	FR2	0	R1150J
1729.481	2.234	2124162	PROB	2.203	n/a	n/a	-999	0	17	[1, 5, 9]	15	0	0	0	n/a	n/a	0.0	0	0	0	FR2	0	R1150J
1731.715	2.449	2126396	PROB	2.417	n/a	n/a	-999	0	17	[4, 4, 5]	13	0	0	0	n/a	n/a	0.0	0	0	0	FR2	0	R1150J
1734.164	2.851	2128845	PROB	2.823	n/a	n/a	-999	0	17	[6, 4, 9]	19	0	0	0	n/a	n/a	0.0	0	0	0	FR2	0	R1150J
1737.015	3.084	2131696	PROB	3.052	n/a	n/a	-999	0	17	[6, 1, 7]	14	0	0	0	n/a	n/a	0.0	0	0	0	FR2	0	R1150J
1740.099	1.816	2134780	PROB	1.783	n/a	n/a	-999	0	17	[1, 2, 2]	5	0	0	0	n/a	n/a	0.0	0	0	0	FR2	0	R1150J
1741.915	4.039	2136596	PROB	4.039	n/a	n/a	-999	0	17	[3, 7, 7]	17	0	0	0	n/a	n/a	0.0	0	0	0	FR2	0	R1150J
1745.954	0.011	2140635	STOP	n/a	n/a	n/a	-999	0	17	[-999, -999, -999]	n/a	0	0	0	n/a	n/a	0.0	0	0	0	FR2	0	R1150J
1745.965	1.158	2140646	DISTRACT_END	n/a	n/a	n/a	-999	0	17	[0, 0, 0]	n/a	0	0	0	n/a	n/a	0.0	0	0	0	FR2	0	R1150J
1747.123	1.839	2141804	REC_START	n/a	n/a	n/a	-999	0	17	[0, 0, 0]	n/a	0	0	0	n/a	n/a	0.0	0	0	0	FR2	0	R1150J
1748.962	2.298	2143643	REC_WORD	1.839	n/a	FOX	1	1	17	[0, 0, 0]	n/a	0	0	0	n/a	n/a	0.0	0	0	0	FR2	0	R1150J
1751.26	3.375	2145941	REC_WORD	4.137	n/a	TAIL	12	1	17	[0, 0, 0]	n/a	0	0	0	n/a	n/a	0.0	0	0	0	FR2	0	R1150J
1754.635	3.187	2149316	REC_WORD	7.512	n/a	SHIP	-999	0	17	[0, 0, 0]	n/a	0	0	0	n/a	n/a	0.0	0	0	0	FR2	0	R1150J
1757.822	7.961	2152503	REC_WORD	10.699	n/a	SAIL	-999	0	17	[0, 0, 0]	n/a	0	0	0	n/a	n/a	0.0	0	0	0	FR2	0	R1150J
1765.783	11.344	2160464	REC_WORD	18.66	n/a	MOON	-999	0	17	[0, 0, 0]	n/a	0	0	0	n/a	n/a	0.0	0	0	0	FR2	0	R1150J
1777.127	11.428	2171809	REC_END	n/a	n/a	n/a	-999	0	17	[0, 0, 0]	n/a	0	0	0	n/a	n/a	0.0	0	0	0	FR2	0	R1150J
1788.555	0.0	2183237	TRIAL	n/a	n/a	n/a	-999	0	18	[0, 0, 0]	n/a	0	1	0	n/a	n/a	0.0	0	0	0	FR2	0	R1150J
1788.555	10.0	2183237	COUNTDOWN_START	n/a	n/a	n/a	-999	0	18	[0, 0, 0]	n/a	0	1	0	n/a	n/a	0.0	0	0	0	FR2	0	R1150J
1798.983	0.007	2193665	COUNTDOWN_END	n/a	n/a	n/a	-999	0	18	[0, 0, 0]	n/a	0	1	0	n/a	n/a	0.0	0	0	0	FR2	0	R1150J
1798.99	1.6	2193672	ORIENT	n/a	n/a	n/a	-999	0	18	[0, 0, 0]	n/a	0	1	0	n/a	n/a	0.0	0	0	0	FR2	0	R1150J
1801.607	1.6	2196289	WORD	n/a	wordpools/wordpool_EN.txt	CAR	1	0	18	[0, 0, 0]	n/a	0	1	0	n/a	n/a	0.0	0	0	0	FR2	0	R1150J
1804.19	1.6	2198872	WORD	n/a	wordpools/wordpool_EN.txt	STORE	2	1	18	[0, 0, 0]	n/a	0	1	0	n/a	n/a	0.0	0	0	0	FR2	0	R1150J
1806.439	4.6	2201121	STIM_ON	n/a	n/a	n/a	-999	0	18	[0, 0, 0]	n/a	1	1	4600	LC1	LC2	250.0	50	230	300	FR2	0	R1150J
1806.641	1.6	2201323	WORD	n/a	wordpools/wordpool_EN.txt	PLANT	3	0	18	[0, 0, 0]	n/a	1	1	4600	LC1	LC2	250.0	50	230	300	FR2	0	R1150J
1809.258	1.6	2203940	WORD	n/a	wordpools/wordpool_EN.txt	ROOT	4	0	18	[0, 0, 0]	n/a	1	1	4600	LC1	LC2	250.0	50	230	300	FR2	0	R1150J
1811.675	1.6	2206357	WORD	n/a	wordpools/wordpool_EN.txt	FARM	5	0	18	[0, 0, 0]	n/a	0	1	0	n/a	n/a	0.0	0	0	0	FR2	0	R1150J
1814.142	1.6	2208824	WORD	n/a	wordpools/wordpool_EN.txt	JUICE	6	0	18	[0, 0, 0]	n/a	0	1	0	n/a	n/a	0.0	0	0	0	FR2	0	R1150J
1816.515	4.6	2211197	STIM_ON	n/a	n/a	n/a	-999	0	18	[0, 0, 0]	n/a	1	1	4600	LC1	LC2	250.0	50	230	300	FR2	0	R1150J
1816.725	1.6	2211407	WORD	n/a	wordpools/wordpool_EN.txt	STORM	7	0	18	[0, 0, 0]	n/a	1	1	4600	LC1	LC2	250.0	50	230	300	FR2	0	R1150J
1819.226	1.6	2213908	WORD	n/a	wordpools/wordpool_EN.txt	SHEEP	8	0	18	[0, 0, 0]	n/a	1	1	4600	LC1	LC2	250.0	50	230	300	FR2	0	R1150J
1821.792	1.6	2216474	WORD	n/a	wordpools/wordpool_EN.txt	ICE	9	1	18	[0, 0, 0]	n/a	0	1	0	n/a	n/a	0.0	0	0	0	FR2	0	R1150J
1824.393	1.6	2219075	WORD	n/a	wordpools/wordpool_EN.txt	TRASH	10	0	18	[0, 0, 0]	n/a	0	1	0	n/a	n/a	0.0	0	0	0	FR2	0	R1150J
1826.608	4.6	2221290	STIM_ON	n/a	n/a	n/a	-999	0	18	[0, 0, 0]	n/a	1	1	4600	LC1	LC2	250.0	50	230	300	FR2	0	R1150J
1826.809	1.6	2221491	WORD	n/a	wordpools/wordpool_EN.txt	CUBE	11	1	18	[0, 0, 0]	n/a	1	1	4600	LC1	LC2	250.0	50	230	300	FR2	0	R1150J
1829.428	1.6	2224110	WORD	n/a	wordpools/wordpool_EN.txt	GRAPE	12	0	18	[0, 0, 0]	n/a	1	1	4600	LC1	LC2	250.0	50	230	300	FR2	0	R1150J
1831.045	0.0	2225727	DISTRACT_START	n/a	n/a	n/a	-999	0	18	[0, 0, 0]	n/a	1	1	4600	LC1	LC2	250.0	50	230	300	FR2	0	R1150J
1831.045	0.016	2225727	START	n/a	n/a	n/a	-999	0	18	[-999, -999, -999]	n/a	0	1	0	n/a	n/a	0.0	0	0	0	FR2	0	R1150J
1831.061	2.883	2225743	PROB	2.858	n/a	n/a	-999	0	18	[3, 2, 5]	10	0	1	0	n/a	n/a	0.0	0	0	0	FR2	0	R1150J
1833.944	2.101	2228626	PROB	2.08	n/a	n/a	-999	0	18	[1, 9, 9]	19	0	1	0	n/a	n/a	0.0	0	0	0	FR2	0	R1150J
1836.045	3.517	2230727	PROB	3.491	n/a	n/a	-999	0	18	[5, 3, 4]	12	0	1	0	n/a	n/a	0.0	0	0	0	FR2	0	R1150J
1839.562	1.651	2234244	PROB	1.622	n/a	n/a	-999	0	18	[4, 4, 4]	12	0	1	0	n/a	n/a	0.0	0	0	0	FR2	0	R1150J
1841.213	2.682	2235895	PROB	2.657	n/a	n/a	-999	0	18	[7, 1, 3]	11	0	1	0	n/a	n/a	0.0	0	0	0	FR2	0	R1150J
1843.895	2.235	2238578	PROB	2.209	n/a	n/a	-999	0	18	[2, 9, 9]	20	0	1	0	n/a	n/a	0.0	0	0	0	FR2	0	R1150J
1846.13	1.883	2240813	PROB	1.861	n/a	n/a	-999	0	18	[4, 9, 1]	14	0	1	0	n/a	n/a	0.0	0	0	0	FR2	0	R1150J
1848.013	2.034	2242696	PROB	2.003	n/a	n/a	-999	0	18	[4, 5, 1]	10	0	1	0	n/a	n/a	0.0	0	0	0	FR2	0	R1150J
1850.047	2.193	2244730	PROB	2.193	n/a	n/a	-999	0	18	[9, 1, 5]	15	0	1	0	n/a	n/a	0.0	0	0	0	FR2	0	R1150J
1852.24	0.007	2246923	STOP	n/a	n/a	n/a	-999	0	18	[-999, -999, -999]	n/a	0	1	0	n/a	n/a	0.0	0	0	0	FR2	0	R1150J
1852.247	1.084	2246930	DISTRACT_END	n/a	n/a	n/a	-999	0	18	[0, 0, 0]	n/a	0	1	0	n/a	n/a	0.0	0	0	0	FR2	0	R1150J
1853.331	1.107	2248014	REC_START	n/a	n/a	n/a	-999	0	18	[0, 0, 0]	n/a	0	1	0	n/a	n/a	0.0	0	0	0	FR2	0	R1150J
1854.438	1.514	2249121	REC_WORD	1.107	n/a	ICE	9	1	18	[0, 0, 0]	n/a	0	1	0	n/a	n/a	0.0	0	0	0	FR2	0	R1150J
1855.952	3.732	2250635	REC_WORD	2.621	n/a	CUBE	11	1	18	[0, 0, 0]	n/a	0	1	0	n/a	n/a	0.0	0	0	0	FR2	0	R1150J
1859.684	23.654	2254367	REC_WORD	6.353	n/a	STORE	2	1	18	[0, 0, 0]	n/a	0	1	0	n/a	n/a	0.0	0	0	0	FR2	0	R1150J
1883.338	2.214	2278021	REC_END	n/a	n/a	n/a	-999	0	18	[0, 0, 0]	n/a	0	1	0	n/a	n/a	0.0	0	0	0	FR2	0	R1150J
1885.552	0.0	2280235	TRIAL	n/a	n/a	n/a	-999	0	19	[0, 0, 0]	n/a	0	1	0	n/a	n/a	0.0	0	0	0	FR2	0	R1150J
1885.552	10.0	2280235	COUNTDOWN_START	n/a	n/a	n/a	-999	0	19	[0, 0, 0]	n/a	0	1	0	n/a	n/a	0.0	0	0	0	FR2	0	R1150J
1895.98	0.006	2290663	COUNTDOWN_END	n/a	n/a	n/a	-999	0	19	[0, 0, 0]	n/a	0	1	0	n/a	n/a	0.0	0	0	0	FR2	0	R1150J
1895.986	1.6	2290669	ORIENT	n/a	n/a	n/a	-999	0	19	[0, 0, 0]	n/a	0	1	0	n/a	n/a	0.0	0	0	0	FR2	0	R1150J
1898.437	1.6	2293120	WORD	n/a	wordpools/wordpool_EN.txt	BOX	1	0	19	[0, 0, 0]	n/a	0	1	0	n/a	n/a	0.0	0	0	0	FR2	0	R1150J
1900.919	1.6	2295602	WORD	n/a	wordpools/wordpool_EN.txt	DOOR	2	1	19	[0, 0, 0]	n/a	0	1	0	n/a	n/a	0.0	0	0	0	FR2	0	R1150J
1903.088	4.6	2297771	STIM_ON	n/a	n/a	n/a	-999	0	19	[0, 0, 0]	n/a	1	1	4600	LC1	LC2	250.0	50	230	300	FR2	0	R1150J
1903.304	1.6	2297987	WORD	n/a	wordpools/wordpool_EN.txt	COUCH	3	0	19	[0, 0, 0]	n/a	1	1	4600	LC1	LC2	250.0	50	230	300	FR2	0	R1150J
1905.903	1.6	2300586	WORD	n/a	wordpools/wordpool_EN.txt	SLEEVE	4	0	19	[0, 0, 0]	n/a	1	1	4600	LC1	LC2	250.0	50	230	300	FR2	0	R1150J
1908.405	1.6	2303088	WORD	n/a	wordpools/wordpool_EN.txt	PASTE	5	0	19	[0, 0, 0]	n/a	0	1	0	n/a	n/a	0.0	0	0	0	FR2	0	R1150J
1910.854	1.6	2305538	WORD	n/a	wordpools/wordpool_EN.txt	CHALK	6	0	19	[0, 0, 0]	n/a	0	1	0	n/a	n/a	0.0	0	0	0	FR2	0	R1150J
1913.253	4.6	2307937	STIM_ON	n/a	n/a	n/a	-999	0	19	[0, 0, 0]	n/a	1	1	4600	LC1	LC2	250.0	50	230	300	FR2	0	R1150J
1913.455	1.6	2308139	WORD	n/a	wordpools/wordpool_EN.txt	CAGE	7	0	19	[0, 0, 0]	n/a	1	1	4600	LC1	LC2	250.0	50	230	300	FR2	0	R1150J
1915.855	1.6	2310539	WORD	n/a	wordpools/wordpool_EN.txt	CUP	8	1	19	[0, 0, 0]	n/a	1	1	4600	LC1	LC2	250.0	50	230	300	FR2	0	R1150J
1918.289	1.6	2312973	WORD	n/a	wordpools/wordpool_EN.txt	LEG	9	0	19	[0, 0, 0]	n/a	0	1	0	n/a	n/a	0.0	0	0	0	FR2	0	R1150J
1920.756	1.6	2315440	WORD	n/a	wordpools/wordpool_EN.txt	CART	10	0	19	[0, 0, 0]	n/a	0	1	0	n/a	n/a	0.0	0	0	0	FR2	0	R1150J
1922.994	4.6	2317678	STIM_ON	n/a	n/a	n/a	-999	0	19	[0, 0, 0]	n/a	1	1	4600	LC1	LC2	250.0	50	230	300	FR2	0	R1150J
1923.206	1.6	2317890	WORD	n/a	wordpools/wordpool_EN.txt	STOOL	11	0	19	[0, 0, 0]	n/a	1	1	4600	LC1	LC2	250.0	50	230	300	FR2	0	R1150J
1925.74	1.6	2320424	WORD	n/a	wordpools/wordpool_EN.txt	DART	12	1	19	[0, 0, 0]	n/a	1	1	4600	LC1	LC2	250.0	50	230	300	FR2	0	R1150J
1927.357	0.001	2322041	DISTRACT_START	n/a	n/a	n/a	-999	0	19	[0, 0, 0]	n/a	1	1	4600	LC1	LC2	250.0	50	230	300	FR2	0	R1150J
1927.358	0.016	2322042	START	n/a	n/a	n/a	-999	0	19	[-999, -999, -999]	n/a	0	1	0	n/a	n/a	0.0	0	0	0	FR2	0	R1150J
1927.374	2.566	2322058	PROB	2.534	n/a	n/a	-999	0	19	[9, 1, 4]	14	0	1	0	n/a	n/a	0.0	0	0	0	FR2	0	R1150J
1929.94	2.635	2324624	PROB	2.609	n/a	n/a	-999	0	19	[7, 1, 5]	13	0	1	0	n/a	n/a	0.0	0	0	0	FR2	0	R1150J
1932.575	3.45	2327259	PROB	3.429	n/a	n/a	-999	0	19	[2, 4, 5]	11	0	1	0	n/a	n/a	0.0	0	0	0	FR2	0	R1150J
1936.025	2.333	2330709	PROB	2.299	n/a	n/a	-999	0	19	[4, 1, 2]	7	0	1	0	n/a	n/a	0.0	0	0	0	FR2	0	R1150J
1938.358	1.951	2333042	PROB	1.918	n/a	n/a	-999	0	19	[5, 7, 3]	15	0	1	0	n/a	n/a	0.0	0	0	0	FR2	0	R1150J
1940.309	3.134	2334993	PROB	3.104	n/a	n/a	-999	0	19	[2, 9, 7]	18	0	1	0	n/a	n/a	0.0	0	0	0	FR2	0	R1150J
1943.443	2.767	2338127	PROB	2.745	n/a	n/a	-999	0	19	[2, 4, 2]	8	0	1	0	n/a	n/a	0.0	0	0	0	FR2	0	R1150J
1946.21	1.593	2340894	PROB	1.593	n/a	n/a	-999	0	19	[5, 3, 5]	13	0	1	0	n/a	n/a	0.0	0	0	0	FR2	0	R1150J
1947.803	0.006	2342487	STOP	n/a	n/a	n/a	-999	0	19	[-999, -999, -999]	n/a	0	1	0	n/a	n/a	0.0	0	0	0	FR2	0	R1150J
1947.809	1.051	2342493	DISTRACT_END	n/a	n/a	n/a	-999	0	19	[0, 0, 0]	n/a	0	1	0	n/a	n/a	0.0	0	0	0	FR2	0	R1150J
1948.86	0.983	2343544	REC_START	n/a	n/a	n/a	-999	0	19	[0, 0, 0]	n/a	0	1	0	n/a	n/a	0.0	0	0	0	FR2	0	R1150J
1949.843	0.895	2344527	REC_WORD	0.983	n/a	DOOR	2	1	19	[0, 0, 0]	n/a	0	1	0	n/a	n/a	0.0	0	0	0	FR2	0	R1150J
1950.738	2.214	2345422	REC_WORD	1.878	n/a	CUP	8	1	19	[0, 0, 0]	n/a	0	1	0	n/a	n/a	0.0	0	0	0	FR2	0	R1150J
1952.952	8.473	2347636	REC_WORD	4.092	n/a	DART	12	1	19	[0, 0, 0]	n/a	0	1	0	n/a	n/a	0.0	0	0	0	FR2	0	R1150J
1961.425	17.445	2356109	REC_WORD	12.565	n/a	STORE	-999	0	19	[0, 0, 0]	n/a	0	1	0	n/a	n/a	0.0	0	0	0	FR2	0	R1150J
1978.87	1.878	2373555	REC_END	n/a	n/a	n/a	-999	0	19	[0, 0, 0]	n/a	0	1	0	n/a	n/a	0.0	0	0	0	FR2	0	R1150J
1980.748	0.0	2375433	TRIAL	n/a	n/a	n/a	-999	0	20	[0, 0, 0]	n/a	0	1	0	n/a	n/a	0.0	0	0	0	FR2	0	R1150J
1980.748	10.0	2375433	COUNTDOWN_START	n/a	n/a	n/a	-999	0	20	[0, 0, 0]	n/a	0	1	0	n/a	n/a	0.0	0	0	0	FR2	0	R1150J
1991.176	0.006	2385861	COUNTDOWN_END	n/a	n/a	n/a	-999	0	20	[0, 0, 0]	n/a	0	1	0	n/a	n/a	0.0	0	0	0	FR2	0	R1150J
1991.182	1.6	2385867	ORIENT	n/a	n/a	n/a	-999	0	20	[0, 0, 0]	n/a	0	1	0	n/a	n/a	0.0	0	0	0	FR2	0	R1150J
1993.573	4.6	2388258	STIM_ON	n/a	n/a	n/a	-999	0	20	[0, 0, 0]	n/a	1	1	4600	LC1	LC2	250.0	50	230	300	FR2	0	R1150J
1993.781	1.6	2388466	WORD	n/a	wordpools/wordpool_EN.txt	MAP	1	0	20	[0, 0, 0]	n/a	1	1	4600	LC1	LC2	250.0	50	230	300	FR2	0	R1150J
1996.316	1.6	2391001	WORD	n/a	wordpools/wordpool_EN.txt	CORN	2	0	20	[0, 0, 0]	n/a	1	1	4600	LC1	LC2	250.0	50	230	300	FR2	0	R1150J
1998.799	1.6	2393484	WORD	n/a	wordpools/wordpool_EN.txt	ROSE	3	0	20	[0, 0, 0]	n/a	0	1	0	n/a	n/a	0.0	0	0	0	FR2	0	R1150J
2001.417	1.6	2396102	WORD	n/a	wordpools/wordpool_EN.txt	ELF	4	1	20	[0, 0, 0]	n/a	0	1	0	n/a	n/a	0.0	0	0	0	FR2	0	R1150J
2003.656	4.6	2398341	STIM_ON	n/a	n/a	n/a	-999	0	20	[0, 0, 0]	n/a	1	1	4600	LC1	LC2	250.0	50	230	300	FR2	0	R1150J
2003.866	1.6	2398551	WORD	n/a	wordpools/wordpool_EN.txt	CAPE	5	0	20	[0, 0, 0]	n/a	1	1	4600	LC1	LC2	250.0	50	230	300	FR2	0	R1150J
2006.351	1.6	2401036	WORD	n/a	wordpools/wordpool_EN.txt	NET	6	0	20	[0, 0, 0]	n/a	1	1	4600	LC1	LC2	250.0	50	230	300	FR2	0	R1150J
2008.951	1.6	2403636	WORD	n/a	wordpools/wordpool_EN.txt	SEA	7	0	20	[0, 0, 0]	n/a	0	1	0	n/a	n/a	0.0	0	0	0	FR2	0	R1150J
2011.569	1.6	2406254	WORD	n/a	wordpools/wordpool_EN.txt	SHEET	8	0	20	[0, 0, 0]	n/a	0	1	0	n/a	n/a	0.0	0	0	0	FR2	0	R1150J
2013.857	4.6	2408542	STIM_ON	n/a	n/a	n/a	-999	0	20	[0, 0, 0]	n/a	1	1	4600	LC1	LC2	250.0	50	230	300	FR2	0	R1150J
2014.069	1.6	2408754	WORD	n/a	wordpools/wordpool_EN.txt	GOLD	9	0	20	[0, 0, 0]	n/a	1	1	4600	LC1	LC2	250.0	50	230	300	FR2	0	R1150J
2016.586	1.6	2411271	WORD	n/a	wordpools/wordpool_EN.txt	CLAY	10	0	20	[0, 0, 0]	n/a	1	1	4600	LC1	LC2	250.0	50	230	300	FR2	0	R1150J
2019.086	1.6	2413771	WORD	n/a	wordpools/wordpool_EN.txt	PEARL	11	0	20	[0, 0, 0]	n/a	0	1	0	n/a	n/a	0.0	0	0	0	FR2	0	R1150J
2021.536	1.6	2416221	WORD	n/a	wordpools/wordpool_EN.txt	COIN	12	0	20	[0, 0, 0]	n/a	0	1	0	n/a	n/a	0.0	0	0	0	FR2	0	R1150J
2023.153	0.001	2417838	DISTRACT_START	n/a	n/a	n/a	-999	0	20	[0, 0, 0]	n/a	0	1	0	n/a	n/a	0.0	0	0	0	FR2	0	R1150J
2023.154	0.016	2417839	START	n/a	n/a	n/a	-999	0	20	[-999, -999, -999]	n/a	0	1	0	n/a	n/a	0.0	0	0	0	FR2	0	R1150J
2023.17	2.967	2417855	PROB	2.944	n/a	n/a	-999	0	20	[2, 6, 3]	11	0	1	0	n/a	n/a	0.0	0	0	0	FR2	0	R1150J
2026.137	1.967	2420822	PROB	1.936	n/a	n/a	-999	0	20	[5, 2, 1]	8	0	1	0	n/a	n/a	0.0	0	0	0	FR2	0	R1150J
2028.104	2.217	2422789	PROB	2.194	n/a	n/a	-999	0	20	[5, 8, 3]	16	0	1	0	n/a	n/a	0.0	0	0	0	FR2	0	R1150J
2030.321	2.583	2425006	PROB	2.551	n/a	n/a	-999	0	20	[8, 7, 4]	19	0	1	0	n/a	n/a	0.0	0	0	0	FR2	0	R1150J
2032.904	2.033	2427589	PROB	2.0	n/a	n/a	-999	0	20	[8, 3, 2]	13	0	1	0	n/a	n/a	0.0	0	0	0	FR2	0	R1150J
2034.937	2.285	2429622	PROB	2.248	n/a	n/a	-999	0	20	[8, 3, 1]	12	0	1	0	n/a	n/a	0.0	0	0	0	FR2	0	R1150J
2037.222	4.25	2431907	PROB	4.219	n/a	n/a	-999	0	20	[4, 5, 9]	18	0	1	0	n/a	n/a	0.0	0	0	0	FR2	0	R1150J
2041.472	2.592	2436157	PROB	2.592	n/a	n/a	-999	0	20	[9, 4, 4]	17	0	1	0	n/a	n/a	0.0	0	0	0	FR2	0	R1150J
2044.064	0.008	2438749	STOP	n/a	n/a	n/a	-999	0	20	[-999, -999, -999]	n/a	0	1	0	n/a	n/a	0.0	0	0	0	FR2	0	R1150J
2044.072	1.035	2438757	DISTRACT_END	n/a	n/a	n/a	-999	0	20	[0, 0, 0]	n/a	0	1	0	n/a	n/a	0.0	0	0	0	FR2	0	R1150J
2045.107	2.359	2439792	REC_START	n/a	n/a	n/a	-999	0	20	[0, 0, 0]	n/a	0	1	0	n/a	n/a	0.0	0	0	0	FR2	0	R1150J
2047.466	0.105	2442152	REC_WORD_VV	2.359	n/a	<>	-999	0	20	[0, 0, 0]	n/a	0	1	0	n/a	n/a	0.0	0	0	0	FR2	0	R1150J
2047.571	3.041	2442257	REC_WORD	2.464	n/a	DOOR	-999	0	20	[0, 0, 0]	n/a	0	1	0	n/a	n/a	0.0	0	0	0	FR2	0	R1150J
2050.612	19.227	2445298	REC_WORD	5.505	n/a	ELF	4	1	20	[0, 0, 0]	n/a	0	1	0	n/a	n/a	0.0	0	0	0	FR2	0	R1150J
2069.839	5.278	2464525	REC_WORD	24.732	n/a	STORE	-999	0	20	[0, 0, 0]	n/a	0	1	0	n/a	n/a	0.0	0	0	0	FR2	0	R1150J
2075.117	1.994	2469803	REC_END	n/a	n/a	n/a	-999	0	20	[0, 0, 0]	n/a	0	1	0	n/a	n/a	0.0	0	0	0	FR2	0	R1150J
2077.111	0.0	2471797	TRIAL	n/a	n/a	n/a	-999	0	21	[0, 0, 0]	n/a	0	0	0	n/a	n/a	0.0	0	0	0	FR2	0	R1150J
2077.111	10.0	2471797	COUNTDOWN_START	n/a	n/a	n/a	-999	0	21	[0, 0, 0]	n/a	0	0	0	n/a	n/a	0.0	0	0	0	FR2	0	R1150J
2087.539	0.006	2482225	COUNTDOWN_END	n/a	n/a	n/a	-999	0	21	[0, 0, 0]	n/a	0	0	0	n/a	n/a	0.0	0	0	0	FR2	0	R1150J
2087.545	1.6	2482231	ORIENT	n/a	n/a	n/a	-999	0	21	[0, 0, 0]	n/a	0	0	0	n/a	n/a	0.0	0	0	0	FR2	0	R1150J
2090.062	1.6	2484748	WORD	n/a	wordpools/wordpool_EN.txt	BLOOM	1	0	21	[0, 0, 0]	n/a	0	0	0	n/a	n/a	0.0	0	0	0	FR2	0	R1150J
2092.646	1.6	2487332	WORD	n/a	wordpools/wordpool_EN.txt	BARN	2	0	21	[0, 0, 0]	n/a	0	0	0	n/a	n/a	0.0	0	0	0	FR2	0	R1150J
2095.229	1.6	2489915	WORD	n/a	wordpools/wordpool_EN.txt	PEN	3	0	21	[0, 0, 0]	n/a	0	0	0	n/a	n/a	0.0	0	0	0	FR2	0	R1150J
2097.829	1.6	2492515	WORD	n/a	wordpools/wordpool_EN.txt	WHEEL	4	0	21	[0, 0, 0]	n/a	0	0	0	n/a	n/a	0.0	0	0	0	FR2	0	R1150J
2100.447	1.6	2495133	WORD	n/a	wordpools/wordpool_EN.txt	BRICK	5	0	21	[0, 0, 0]	n/a	0	0	0	n/a	n/a	0.0	0	0	0	FR2	0	R1150J
2102.997	1.6	2497683	WORD	n/a	wordpools/wordpool_EN.txt	SALT	6	0	21	[0, 0, 0]	n/a	0	0	0	n/a	n/a	0.0	0	0	0	FR2	0	R1150J
2105.447	1.6	2500133	WORD	n/a	wordpools/wordpool_EN.txt	MOLE	7	0	21	[0, 0, 0]	n/a	0	0	0	n/a	n/a	0.0	0	0	0	FR2	0	R1150J
2108.065	1.6	2502751	WORD	n/a	wordpools/wordpool_EN.txt	MOTH	8	0	21	[0, 0, 0]	n/a	0	0	0	n/a	n/a	0.0	0	0	0	FR2	0	R1150J
2110.548	1.6	2505234	WORD	n/a	wordpools/wordpool_EN.txt	DOG	9	1	21	[0, 0, 0]	n/a	0	0	0	n/a	n/a	0.0	0	0	0	FR2	0	R1150J
2113.182	1.6	2507868	WORD	n/a	wordpools/wordpool_EN.txt	FLEA	10	1	21	[0, 0, 0]	n/a	0	0	0	n/a	n/a	0.0	0	0	0	FR2	0	R1150J
2115.715	1.6	2510402	WORD	n/a	wordpools/wordpool_EN.txt	STEAM	11	0	21	[0, 0, 0]	n/a	0	0	0	n/a	n/a	0.0	0	0	0	FR2	0	R1150J
2118.332	1.6	2513019	WORD	n/a	wordpools/wordpool_EN.txt	KITE	12	1	21	[0, 0, 0]	n/a	0	0	0	n/a	n/a	0.0	0	0	0	FR2	0	R1150J
2119.949	0.0	2514636	DISTRACT_START	n/a	n/a	n/a	-999	0	21	[0, 0, 0]	n/a	0	0	0	n/a	n/a	0.0	0	0	0	FR2	0	R1150J
2119.949	0.016	2514636	START	n/a	n/a	n/a	-999	0	21	[-999, -999, -999]	n/a	0	0	0	n/a	n/a	0.0	0	0	0	FR2	0	R1150J
2119.965	2.535	2514652	PROB	2.505	n/a	n/a	-999	0	21	[9, 8, 3]	20	0	0	0	n/a	n/a	0.0	0	0	0	FR2	0	R1150J
2122.5	2.667	2517187	PROB	2.634	n/a	n/a	-999	0	21	[9, 2, 7]	18	0	0	0	n/a	n/a	0.0	0	0	0	FR2	0	R1150J
2125.167	2.3	2519854	PROB	2.279	n/a	n/a	-999	0	21	[2, 4, 2]	8	0	0	0	n/a	n/a	0.0	0	0	0	FR2	0	R1150J
2127.467	2.618	2522154	PROB	2.587	n/a	n/a	-999	0	21	[5, 8, 4]	17	0	0	0	n/a	n/a	0.0	0	0	0	FR2	0	R1150J
2130.085	2.2	2524772	PROB	2.177	n/a	n/a	-999	0	21	[2, 1, 6]	9	0	0	0	n/a	n/a	0.0	0	0	0	FR2	0	R1150J
2132.285	2.183	2526972	PROB	2.152	n/a	n/a	-999	0	21	[9, 2, 3]	15	0	0	0	n/a	n/a	0.0	0	0	0	FR2	0	R1150J
2134.468	2.967	2529155	PROB	2.938	n/a	n/a	-999	0	21	[2, 5, 2]	9	0	0	0	n/a	n/a	0.0	0	0	0	FR2	0	R1150J
2137.435	3.115	2532122	PROB	3.115	n/a	n/a	-999	0	21	[7, 4, 7]	18	0	0	0	n/a	n/a	0.0	0	0	0	FR2	0	R1150J
2140.55	0.019	2535237	STOP	n/a	n/a	n/a	-999	0	21	[-999, -999, -999]	n/a	0	0	0	n/a	n/a	0.0	0	0	0	FR2	0	R1150J
2140.569	1.168	2535256	DISTRACT_END	n/a	n/a	n/a	-999	0	21	[0, 0, 0]	n/a	0	0	0	n/a	n/a	0.0	0	0	0	FR2	0	R1150J
2141.737	1.512	2536424	REC_START	n/a	n/a	n/a	-999	0	21	[0, 0, 0]	n/a	0	0	0	n/a	n/a	0.0	0	0	0	FR2	0	R1150J
2143.249	0.922	2537936	REC_WORD	1.512	n/a	DOG	9	1	21	[0, 0, 0]	n/a	0	0	0	n/a	n/a	0.0	0	0	0	FR2	0	R1150J
2144.171	1.459	2538858	REC_WORD	2.434	n/a	FLEA	10	1	21	[0, 0, 0]	n/a	0	0	0	n/a	n/a	0.0	0	0	0	FR2	0	R1150J
2145.63	3.036	2540317	REC_WORD	3.893	n/a	KITE	12	1	21	[0, 0, 0]	n/a	0	0	0	n/a	n/a	0.0	0	0	0	FR2	0	R1150J
2148.666	10.715	2543353	REC_WORD	6.929	n/a	STORM	-999	0	21	[0, 0, 0]	n/a	0	0	0	n/a	n/a	0.0	0	0	0	FR2	0	R1150J
2159.381	12.365	2554068	REC_WORD	17.644	n/a	WAR	-999	0	21	[0, 0, 0]	n/a	0	0	0	n/a	n/a	0.0	0	0	0	FR2	0	R1150J
2171.746	2.461	2566433	REC_END	n/a	n/a	n/a	-999	0	21	[0, 0, 0]	n/a	0	0	0	n/a	n/a	0.0	0	0	0	FR2	0	R1150J
2174.207	0.0	2568894	TRIAL	n/a	n/a	n/a	-999	0	22	[0, 0, 0]	n/a	0	1	0	n/a	n/a	0.0	0	0	0	FR2	0	R1150J
2174.207	10.0	2568894	COUNTDOWN_START	n/a	n/a	n/a	-999	0	22	[0, 0, 0]	n/a	0	1	0	n/a	n/a	0.0	0	0	0	FR2	0	R1150J
2184.635	0.007	2579323	COUNTDOWN_END	n/a	n/a	n/a	-999	0	22	[0, 0, 0]	n/a	0	1	0	n/a	n/a	0.0	0	0	0	FR2	0	R1150J
2184.642	1.6	2579330	ORIENT	n/a	n/a	n/a	-999	0	22	[0, 0, 0]	n/a	0	1	0	n/a	n/a	0.0	0	0	0	FR2	0	R1150J
2186.981	4.6	2581669	STIM_ON	n/a	n/a	n/a	-999	0	22	[0, 0, 0]	n/a	1	1	4600	LC1	LC2	250.0	50	230	300	FR2	0	R1150J
2187.192	1.6	2581880	WORD	n/a	wordpools/wordpool_EN.txt	CASH	1	0	22	[0, 0, 0]	n/a	1	1	4600	LC1	LC2	250.0	50	230	300	FR2	0	R1150J
2189.808	1.6	2584496	WORD	n/a	wordpools/wordpool_EN.txt	TOOTH	2	0	22	[0, 0, 0]	n/a	1	1	4600	LC1	LC2	250.0	50	230	300	FR2	0	R1150J
2192.21	1.6	2586898	WORD	n/a	wordpools/wordpool_EN.txt	SPONGE	3	0	22	[0, 0, 0]	n/a	0	1	0	n/a	n/a	0.0	0	0	0	FR2	0	R1150J
2194.726	1.6	2589414	WORD	n/a	wordpools/wordpool_EN.txt	WORLD	4	0	22	[0, 0, 0]	n/a	0	1	0	n/a	n/a	0.0	0	0	0	FR2	0	R1150J
2197.015	4.6	2591703	STIM_ON	n/a	n/a	n/a	-999	0	22	[0, 0, 0]	n/a	1	1	4600	LC1	LC2	250.0	50	230	300	FR2	0	R1150J
2197.227	1.6	2591915	WORD	n/a	wordpools/wordpool_EN.txt	SEED	5	0	22	[0, 0, 0]	n/a	1	1	4600	LC1	LC2	250.0	50	230	300	FR2	0	R1150J
2199.694	1.6	2594382	WORD	n/a	wordpools/wordpool_EN.txt	BRUSH	6	1	22	[0, 0, 0]	n/a	1	1	4600	LC1	LC2	250.0	50	230	300	FR2	0	R1150J
2202.078	1.6	2596766	WORD	n/a	wordpools/wordpool_EN.txt	BANK	7	0	22	[0, 0, 0]	n/a	0	1	0	n/a	n/a	0.0	0	0	0	FR2	0	R1150J
2204.511	1.6	2599199	WORD	n/a	wordpools/wordpool_EN.txt	ANT	8	0	22	[0, 0, 0]	n/a	0	1	0	n/a	n/a	0.0	0	0	0	FR2	0	R1150J
2206.764	4.6	2601452	STIM_ON	n/a	n/a	n/a	-999	0	22	[0, 0, 0]	n/a	1	1	4600	LC1	LC2	250.0	50	230	300	FR2	0	R1150J
2206.978	1.6	2601666	WORD	n/a	wordpools/wordpool_EN.txt	LEAF	9	0	22	[0, 0, 0]	n/a	1	1	4600	LC1	LC2	250.0	50	230	300	FR2	0	R1150J
2209.512	1.6	2604200	WORD	n/a	wordpools/wordpool_EN.txt	BRANCH	10	0	22	[0, 0, 0]	n/a	1	1	4600	LC1	LC2	250.0	50	230	300	FR2	0	R1150J
2212.112	1.6	2606800	WORD	n/a	wordpools/wordpool_EN.txt	CORD	11	1	22	[0, 0, 0]	n/a	0	1	0	n/a	n/a	0.0	0	0	0	FR2	0	R1150J
2214.612	1.6	2609300	WORD	n/a	wordpools/wordpool_EN.txt	STEM	12	1	22	[0, 0, 0]	n/a	0	1	0	n/a	n/a	0.0	0	0	0	FR2	0	R1150J
2216.229	0.001	2610917	DISTRACT_START	n/a	n/a	n/a	-999	0	22	[0, 0, 0]	n/a	0	1	0	n/a	n/a	0.0	0	0	0	FR2	0	R1150J
2216.23	0.016	2610918	START	n/a	n/a	n/a	-999	0	22	[-999, -999, -999]	n/a	0	1	0	n/a	n/a	0.0	0	0	0	FR2	0	R1150J
2216.246	2.984	2610934	PROB	2.949	n/a	n/a	-999	0	22	[6, 1, 1]	8	0	1	0	n/a	n/a	0.0	0	0	0	FR2	0	R1150J
2219.23	2.15	2613918	PROB	2.116	n/a	n/a	-999	0	22	[2, 8, 5]	15	0	1	0	n/a	n/a	0.0	0	0	0	FR2	0	R1150J
2221.38	2.482	2616068	PROB	2.453	n/a	n/a	-999	0	22	[3, 3, 7]	12	0	1	0	n/a	n/a	0.0	0	0	0	FR2	0	R1150J
2223.862	1.885	2618550	PROB	1.861	n/a	n/a	-999	0	22	[5, 4, 6]	15	0	1	0	n/a	n/a	0.0	0	0	0	FR2	0	R1150J
2225.747	2.45	2620435	PROB	2.415	n/a	n/a	-999	0	22	[5, 1, 2]	8	0	1	0	n/a	n/a	0.0	0	0	0	FR2	0	R1150J
2228.197	3.918	2622885	PROB	3.886	n/a	n/a	-999	0	22	[5, 9, 4]	18	0	1	0	n/a	n/a	0.0	0	0	0	FR2	0	R1150J
2232.115	3.133	2626803	PROB	3.111	n/a	n/a	-999	0	22	[3, 2, 7]	12	0	1	0	n/a	n/a	0.0	0	0	0	FR2	0	R1150J
2235.248	2.202	2629936	PROB	2.202	n/a	n/a	-999	0	22	[6, 8, 6]	20	0	1	0	n/a	n/a	0.0	0	0	0	FR2	0	R1150J
2237.45	0.015	2632138	STOP	n/a	n/a	n/a	-999	0	22	[-999, -999, -999]	n/a	0	1	0	n/a	n/a	0.0	0	0	0	FR2	0	R1150J
2237.465	1.101	2632153	DISTRACT_END	n/a	n/a	n/a	-999	0	22	[0, 0, 0]	n/a	0	1	0	n/a	n/a	0.0	0	0	0	FR2	0	R1150J
2238.566	1.329	2633254	REC_START	n/a	n/a	n/a	-999	0	22	[0, 0, 0]	n/a	0	1	0	n/a	n/a	0.0	0	0	0	FR2	0	R1150J
2239.895	0.844	2634583	REC_WORD	1.329	n/a	CORD	11	1	22	[0, 0, 0]	n/a	0	1	0	n/a	n/a	0.0	0	0	0	FR2	0	R1150J
2240.739	0.587	2635427	REC_WORD_VV	2.173	n/a	<>	-999	0	22	[0, 0, 0]	n/a	0	1	0	n/a	n/a	0.0	0	0	0	FR2	0	R1150J
2241.326	0.377	2636014	REC_WORD	2.76	n/a	CORD	11	1	22	[0, 0, 0]	n/a	0	1	0	n/a	n/a	0.0	0	0	0	FR2	0	R1150J
2241.703	1.58	2636391	REC_WORD	3.137	n/a	STEM	12	1	22	[0, 0, 0]	n/a	0	1	0	n/a	n/a	0.0	0	0	0	FR2	0	R1150J
2243.283	25.293	2637971	REC_WORD	4.717	n/a	BRUSH	6	1	22	[0, 0, 0]	n/a	0	1	0	n/a	n/a	0.0	0	0	0	FR2	0	R1150J
2268.576	2.094	2663265	REC_END	n/a	n/a	n/a	-999	0	22	[0, 0, 0]	n/a	0	1	0	n/a	n/a	0.0	0	0	0	FR2	0	R1150J
2270.67	0.0	2665359	TRIAL	n/a	n/a	n/a	-999	0	23	[0, 0, 0]	n/a	0	1	0	n/a	n/a	0.0	0	0	0	FR2	0	R1150J
2270.67	10.0	2665359	COUNTDOWN_START	n/a	n/a	n/a	-999	0	23	[0, 0, 0]	n/a	0	1	0	n/a	n/a	0.0	0	0	0	FR2	0	R1150J
2281.098	0.007	2675787	COUNTDOWN_END	n/a	n/a	n/a	-999	0	23	[0, 0, 0]	n/a	0	1	0	n/a	n/a	0.0	0	0	0	FR2	0	R1150J
2281.105	1.6	2675794	ORIENT	n/a	n/a	n/a	-999	0	23	[0, 0, 0]	n/a	0	1	0	n/a	n/a	0.0	0	0	0	FR2	0	R1150J
2283.401	4.6	2678090	STIM_ON	n/a	n/a	n/a	-999	0	23	[0, 0, 0]	n/a	1	1	4600	LC1	LC2	250.0	50	230	300	FR2	0	R1150J
2283.604	1.6	2678293	WORD	n/a	wordpools/wordpool_EN.txt	NAIL	1	1	23	[0, 0, 0]	n/a	1	1	4600	LC1	LC2	250.0	50	230	300	FR2	0	R1150J
2286.055	1.6	2680744	WORD	n/a	wordpools/wordpool_EN.txt	JAIL	2	1	23	[0, 0, 0]	n/a	1	1	4600	LC1	LC2	250.0	50	230	300	FR2	0	R1150J
2288.655	1.6	2683344	WORD	n/a	wordpools/wordpool_EN.txt	HOSE	3	1	23	[0, 0, 0]	n/a	0	1	0	n/a	n/a	0.0	0	0	0	FR2	0	R1150J
2291.256	1.6	2685945	WORD	n/a	wordpools/wordpool_EN.txt	SKI	4	1	23	[0, 0, 0]	n/a	0	1	0	n/a	n/a	0.0	0	0	0	FR2	0	R1150J
2293.66	4.6	2688349	STIM_ON	n/a	n/a	n/a	-999	0	23	[0, 0, 0]	n/a	1	1	4600	LC1	LC2	250.0	50	230	300	FR2	0	R1150J
2293.872	1.6	2688561	WORD	n/a	wordpools/wordpool_EN.txt	DOCK	5	1	23	[0, 0, 0]	n/a	1	1	4600	LC1	LC2	250.0	50	230	300	FR2	0	R1150J
2296.423	1.6	2691112	WORD	n/a	wordpools/wordpool_EN.txt	BOMB	6	0	23	[0, 0, 0]	n/a	1	1	4600	LC1	LC2	250.0	50	230	300	FR2	0	R1150J
2298.822	1.6	2693511	WORD	n/a	wordpools/wordpool_EN.txt	HOOF	7	0	23	[0, 0, 0]	n/a	0	1	0	n/a	n/a	0.0	0	0	0	FR2	0	R1150J
2301.291	1.6	2695980	WORD	n/a	wordpools/wordpool_EN.txt	KEY	8	0	23	[0, 0, 0]	n/a	0	1	0	n/a	n/a	0.0	0	0	0	FR2	0	R1150J
2303.595	4.6	2698284	STIM_ON	n/a	n/a	n/a	-999	0	23	[0, 0, 0]	n/a	1	1	4600	LC1	LC2	250.0	50	230	300	FR2	0	R1150J
2303.807	1.6	2698496	WORD	n/a	wordpools/wordpool_EN.txt	LAND	9	0	23	[0, 0, 0]	n/a	1	1	4600	LC1	LC2	250.0	50	230	300	FR2	0	R1150J
2306.325	1.6	2701014	WORD	n/a	wordpools/wordpool_EN.txt	BOOT	10	0	23	[0, 0, 0]	n/a	1	1	4600	LC1	LC2	250.0	50	230	300	FR2	0	R1150J
2308.941	1.6	2703630	WORD	n/a	wordpools/wordpool_EN.txt	LAKE	11	0	23	[0, 0, 0]	n/a	0	1	0	n/a	n/a	0.0	0	0	0	FR2	0	R1150J
2311.409	1.6	2706098	WORD	n/a	wordpools/wordpool_EN.txt	BOOK	12	0	23	[0, 0, 0]	n/a	0	1	0	n/a	n/a	0.0	0	0	0	FR2	0	R1150J
2313.025	0.001	2707714	DISTRACT_START	n/a	n/a	n/a	-999	0	23	[0, 0, 0]	n/a	0	1	0	n/a	n/a	0.0	0	0	0	FR2	0	R1150J
2313.026	0.016	2707715	START	n/a	n/a	n/a	-999	0	23	[-999, -999, -999]	n/a	0	1	0	n/a	n/a	0.0	0	0	0	FR2	0	R1150J
2313.042	3.034	2707731	PROB	2.998	n/a	n/a	-999	0	23	[8, 4, 8]	20	0	1	0	n/a	n/a	0.0	0	0	0	FR2	0	R1150J
2316.076	2.034	2710765	PROB	2.004	n/a	n/a	-999	0	23	[6, 1, 4]	11	0	1	0	n/a	n/a	0.0	0	0	0	FR2	0	R1150J
2318.11	2.9	2712799	PROB	2.874	n/a	n/a	-999	0	23	[8, 9, 7]	24	0	1	0	n/a	n/a	0.0	0	0	0	FR2	0	R1150J
2321.01	2.766	2715700	PROB	2.733	n/a	n/a	-999	0	23	[4, 5, 8]	17	0	1	0	n/a	n/a	0.0	0	0	0	FR2	0	R1150J
2323.776	2.518	2718466	PROB	2.495	n/a	n/a	-999	0	23	[9, 2, 9]	20	0	1	0	n/a	n/a	0.0	0	0	0	FR2	0	R1150J
2326.294	2.25	2720984	PROB	2.217	n/a	n/a	-999	0	23	[9, 6, 1]	16	0	1	0	n/a	n/a	0.0	0	0	0	FR2	0	R1150J
2328.544	1.349	2723234	PROB	1.318	n/a	n/a	-999	0	23	[5, 5, 2]	12	0	1	0	n/a	n/a	0.0	0	0	0	FR2	0	R1150J
2329.893	2.735	2724583	PROB	2.706	n/a	n/a	-999	0	23	[7, 8, 3]	18	0	1	0	n/a	n/a	0.0	0	0	0	FR2	0	R1150J
2332.628	3.162	2727318	PROB	3.162	n/a	n/a	-999	0	23	[7, 8, 9]	24	0	1	0	n/a	n/a	0.0	0	0	0	FR2	0	R1150J
2335.79	0.004	2730480	STOP	n/a	n/a	n/a	-999	0	23	[-999, -999, -999]	n/a	0	1	0	n/a	n/a	0.0	0	0	0	FR2	0	R1150J
2335.794	1.218	2730484	DISTRACT_END	n/a	n/a	n/a	-999	0	23	[0, 0, 0]	n/a	0	1	0	n/a	n/a	0.0	0	0	0	FR2	0	R1150J
2337.012	0.911	2731702	REC_START	n/a	n/a	n/a	-999	0	23	[0, 0, 0]	n/a	0	1	0	n/a	n/a	0.0	0	0	0	FR2	0	R1150J
2337.923	0.753	2732613	REC_WORD	0.911	n/a	NAIL	1	1	23	[0, 0, 0]	n/a	0	1	0	n/a	n/a	0.0	0	0	0	FR2	0	R1150J
2338.676	1.031	2733366	REC_WORD	1.664	n/a	JAIL	2	1	23	[0, 0, 0]	n/a	0	1	0	n/a	n/a	0.0	0	0	0	FR2	0	R1150J
2339.707	3.656	2734397	REC_WORD	2.695	n/a	HOSE	3	1	23	[0, 0, 0]	n/a	0	1	0	n/a	n/a	0.0	0	0	0	FR2	0	R1150J
2343.363	2.6	2738053	REC_WORD_VV	6.351	n/a	<>	-999	0	23	[0, 0, 0]	n/a	0	1	0	n/a	n/a	0.0	0	0	0	FR2	0	R1150J
2345.963	6.631	2740653	REC_WORD	8.951	n/a	DOCK	5	1	23	[0, 0, 0]	n/a	0	1	0	n/a	n/a	0.0	0	0	0	FR2	0	R1150J
2352.594	14.428	2747284	REC_WORD	15.582	n/a	SKI	4	1	23	[0, 0, 0]	n/a	0	1	0	n/a	n/a	0.0	0	0	0	FR2	0	R1150J
2367.022	2.395	2761712	REC_END	n/a	n/a	n/a	-999	0	23	[0, 0, 0]	n/a	0	1	0	n/a	n/a	0.0	0	0	0	FR2	0	R1150J
2369.417	10.0	2764107	COUNTDOWN_START	n/a	n/a	n/a	-999	0	24	[0, 0, 0]	n/a	0	1	0	n/a	n/a	0.0	0	0	0	FR2	0	R1150J
2369.417	10.428	2764107	TRIAL	n/a	n/a	n/a	-999	0	24	[0, 0, 0]	n/a	0	1	0	n/a	n/a	0.0	0	0	0	FR2	0	R1150J
2379.845	0.005	2774535	COUNTDOWN_END	n/a	n/a	n/a	-999	0	24	[0, 0, 0]	n/a	0	1	0	n/a	n/a	0.0	0	0	0	FR2	0	R1150J
2379.85	1.6	2774540	ORIENT	n/a	n/a	n/a	-999	0	24	[0, 0, 0]	n/a	0	1	0	n/a	n/a	0.0	0	0	0	FR2	0	R1150J
2382.187	4.6	2776877	STIM_ON	n/a	n/a	n/a	-999	0	24	[0, 0, 0]	n/a	1	1	4600	LC1	LC2	250.0	50	230	300	FR2	0	R1150J
2382.402	1.6	2777092	WORD	n/a	wordpools/wordpool_EN.txt	ARM	1	1	24	[0, 0, 0]	n/a	1	1	4600	LC1	LC2	250.0	50	230	300	FR2	0	R1150J
2384.951	1.6	2779641	WORD	n/a	wordpools/wordpool_EN.txt	VASE	2	0	24	[0, 0, 0]	n/a	1	1	4600	LC1	LC2	250.0	50	230	300	FR2	0	R1150J
2387.402	1.6	2782093	WORD	n/a	wordpools/wordpool_EN.txt	TRAY	3	0	24	[0, 0, 0]	n/a	0	1	0	n/a	n/a	0.0	0	0	0	FR2	0	R1150J
2389.918	1.6	2784609	WORD	n/a	wordpools/wordpool_EN.txt	BAG	4	0	24	[0, 0, 0]	n/a	0	1	0	n/a	n/a	0.0	0	0	0	FR2	0	R1150J
2392.221	4.6	2786912	STIM_ON	n/a	n/a	n/a	-999	0	24	[0, 0, 0]	n/a	1	1	4600	LC1	LC2	250.0	50	230	300	FR2	0	R1150J
2392.436	1.6	2787127	WORD	n/a	wordpools/wordpool_EN.txt	DOLL	5	0	24	[0, 0, 0]	n/a	1	1	4600	LC1	LC2	250.0	50	230	300	FR2	0	R1150J
2395.036	1.6	2789727	WORD	n/a	wordpools/wordpool_EN.txt	BALL	6	0	24	[0, 0, 0]	n/a	1	1	4600	LC1	LC2	250.0	50	230	300	FR2	0	R1150J
2397.537	1.6	2792228	WORD	n/a	wordpools/wordpool_EN.txt	SOCK	7	0	24	[0, 0, 0]	n/a	0	1	0	n/a	n/a	0.0	0	0	0	FR2	0	R1150J
2400.07	1.6	2794761	WORD	n/a	wordpools/wordpool_EN.txt	PEAR	8	0	24	[0, 0, 0]	n/a	0	1	0	n/a	n/a	0.0	0	0	0	FR2	0	R1150J
2402.348	4.6	2797039	STIM_ON	n/a	n/a	n/a	-999	0	24	[0, 0, 0]	n/a	1	1	4600	LC1	LC2	250.0	50	230	300	FR2	0	R1150J
2402.554	1.6	2797245	WORD	n/a	wordpools/wordpool_EN.txt	FOOT	9	0	24	[0, 0, 0]	n/a	1	1	4600	LC1	LC2	250.0	50	230	300	FR2	0	R1150J
2405.038	1.6	2799729	WORD	n/a	wordpools/wordpool_EN.txt	CANE	10	0	24	[0, 0, 0]	n/a	1	1	4600	LC1	LC2	250.0	50	230	300	FR2	0	R1150J
2407.571	1.6	2802262	WORD	n/a	wordpools/wordpool_EN.txt	STRING	11	0	24	[0, 0, 0]	n/a	0	1	0	n/a	n/a	0.0	0	0	0	FR2	0	R1150J
2410.088	1.6	2804779	WORD	n/a	wordpools/wordpool_EN.txt	OAR	12	0	24	[0, 0, 0]	n/a	0	1	0	n/a	n/a	0.0	0	0	0	FR2	0	R1150J
2411.705	0.001	2806396	DISTRACT_START	n/a	n/a	n/a	-999	0	24	[0, 0, 0]	n/a	0	1	0	n/a	n/a	0.0	0	0	0	FR2	0	R1150J
2411.706	0.016	2806397	START	n/a	n/a	n/a	-999	0	24	[-999, -999, -999]	n/a	0	1	0	n/a	n/a	0.0	0	0	0	FR2	0	R1150J
2411.722	2.717	2806413	PROB	2.682	n/a	n/a	-999	0	24	[3, 6, 7]	16	0	1	0	n/a	n/a	0.0	0	0	0	FR2	0	R1150J
2414.439	2.584	2809130	PROB	2.557	n/a	n/a	-999	0	24	[3, 1, 4]	8	0	1	0	n/a	n/a	0.0	0	0	0	FR2	0	R1150J
2417.023	4.4	2811714	PROB	4.373	n/a	n/a	-999	0	24	[7, 6, 8]	24	0	1	0	n/a	n/a	0.0	0	0	0	FR2	0	R1150J
2421.423	3.901	2816114	PROB	3.869	n/a	n/a	-999	0	24	[9, 3, 2]	14	0	1	0	n/a	n/a	0.0	0	0	0	FR2	0	R1150J
2425.324	3.834	2820015	PROB	3.808	n/a	n/a	-999	0	24	[4, 5, 7]	16	0	1	0	n/a	n/a	0.0	0	0	0	FR2	0	R1150J
2429.158	5.037	2823849	PROB	5.037	n/a	n/a	-999	0	24	[9, 7, 6]	22	0	1	0	n/a	n/a	0.0	0	0	0	FR2	0	R1150J
2434.195	0.013	2828886	STOP	n/a	n/a	n/a	-999	0	24	[-999, -999, -999]	n/a	0	1	0	n/a	n/a	0.0	0	0	0	FR2	0	R1150J
2434.208	1.035	2828899	DISTRACT_END	n/a	n/a	n/a	-999	0	24	[0, 0, 0]	n/a	0	1	0	n/a	n/a	0.0	0	0	0	FR2	0	R1150J
2435.243	2.501	2829934	REC_START	n/a	n/a	n/a	-999	0	24	[0, 0, 0]	n/a	0	1	0	n/a	n/a	0.0	0	0	0	FR2	0	R1150J
2437.744	1.945	2832435	REC_WORD_VV	2.501	n/a	<>	-999	0	24	[0, 0, 0]	n/a	0	1	0	n/a	n/a	0.0	0	0	0	FR2	0	R1150J
2439.689	8.329	2834380	REC_WORD	4.446	n/a	ARM	1	1	24	[0, 0, 0]	n/a	0	1	0	n/a	n/a	0.0	0	0	0	FR2	0	R1150J
2448.018	17.233	2842709	REC_WORD	12.775	n/a	DOOR	-999	0	24	[0, 0, 0]	n/a	0	1	0	n/a	n/a	0.0	0	0	0	FR2	0	R1150J
2465.251	2.527	2859943	REC_END	n/a	n/a	n/a	-999	0	24	[0, 0, 0]	n/a	0	1	0	n/a	n/a	0.0	0	0	0	FR2	0	R1150J
2467.778	10.0	2862470	COUNTDOWN_START	n/a	n/a	n/a	-999	0	25	[0, 0, 0]	n/a	0	1	0	n/a	n/a	0.0	0	0	0	FR2	0	R1150J
2467.779	10.427	2862471	TRIAL	n/a	n/a	n/a	-999	0	25	[0, 0, 0]	n/a	0	1	0	n/a	n/a	0.0	0	0	0	FR2	0	R1150J
2478.206	0.008	2872898	COUNTDOWN_END	n/a	n/a	n/a	-999	0	25	[0, 0, 0]	n/a	0	1	0	n/a	n/a	0.0	0	0	0	FR2	0	R1150J
2478.214	1.6	2872906	ORIENT	n/a	n/a	n/a	-999	0	25	[0, 0, 0]	n/a	0	1	0	n/a	n/a	0.0	0	0	0	FR2	0	R1150J
2480.598	1.6	2875290	WORD	n/a	wordpools/wordpool_EN.txt	CLOUD	1	1	25	[0, 0, 0]	n/a	0	1	0	n/a	n/a	0.0	0	0	0	FR2	0	R1150J
2483.065	1.6	2877757	WORD	n/a	wordpools/wordpool_EN.txt	JUDGE	2	0	25	[0, 0, 0]	n/a	0	1	0	n/a	n/a	0.0	0	0	0	FR2	0	R1150J
2485.461	4.6	2880153	STIM_ON	n/a	n/a	n/a	-999	0	25	[0, 0, 0]	n/a	1	1	4600	LC1	LC2	250.0	50	230	300	FR2	0	R1150J
2485.665	1.6	2880357	WORD	n/a	wordpools/wordpool_EN.txt	WHALE	3	0	25	[0, 0, 0]	n/a	1	1	4600	LC1	LC2	250.0	50	230	300	FR2	0	R1150J
2488.232	1.6	2882924	WORD	n/a	wordpools/wordpool_EN.txt	HORSE	4	1	25	[0, 0, 0]	n/a	1	1	4600	LC1	LC2	250.0	50	230	300	FR2	0	R1150J
2490.765	1.6	2885457	WORD	n/a	wordpools/wordpool_EN.txt	BEACH	5	0	25	[0, 0, 0]	n/a	0	1	0	n/a	n/a	0.0	0	0	0	FR2	0	R1150J
2493.366	1.6	2888058	WORD	n/a	wordpools/wordpool_EN.txt	STAR	6	0	25	[0, 0, 0]	n/a	0	1	0	n/a	n/a	0.0	0	0	0	FR2	0	R1150J
2495.593	4.6	2890285	STIM_ON	n/a	n/a	n/a	-999	0	25	[0, 0, 0]	n/a	1	1	4600	LC1	LC2	250.0	50	230	300	FR2	0	R1150J
2495.799	1.6	2890491	WORD	n/a	wordpools/wordpool_EN.txt	WAVE	7	0	25	[0, 0, 0]	n/a	1	1	4600	LC1	LC2	250.0	50	230	300	FR2	0	R1150J
