onset	duration	sample	trial_type	response_time	stim_file	item_name	serialpos	recalled	list	test	answer	stimulation	stim_list	stim_duration	anode_label	cathode_label	amplitude	pulse_freq	n_pulses	pulse_width	experiment	session	subject
0.0	25.111	299210	SESS_START	n/a	n/a	n/a	-999	0	-999	[0, 0, 0]	n/a	0	0	0	n/a	n/a	0.0	0	0	0	FR2	3	R1184M
25.111	10.0	311764	COUNTDOWN_START	n/a	n/a	n/a	-999	0	-999	[0, 0, 0]	n/a	0	0	0	n/a	n/a	0.0	0	0	0	FR2	3	R1184M
35.539	3.809	316978	COUNTDOWN_END	n/a	n/a	n/a	-999	0	-999	[0, 0, 0]	n/a	0	0	0	n/a	n/a	0.0	0	0	0	FR2	3	R1184M
39.348	1.6	318882	PRACTICE_WORD	n/a	n/a	WATCH	1	0	-1	[0, 0, 0]	n/a	0	0	0	n/a	n/a	0.0	0	0	0	FR2	3	R1184M
41.914	1.6	320165	PRACTICE_WORD	n/a	n/a	IRON	2	0	-1	[0, 0, 0]	n/a	0	0	0	n/a	n/a	0.0	0	0	0	FR2	3	R1184M
44.382	1.6	321399	PRACTICE_WORD	n/a	n/a	RING	3	0	-1	[0, 0, 0]	n/a	0	0	0	n/a	n/a	0.0	0	0	0	FR2	3	R1184M
46.766	1.6	322591	PRACTICE_WORD	n/a	n/a	FLOOD	4	0	-1	[0, 0, 0]	n/a	0	0	0	n/a	n/a	0.0	0	0	0	FR2	3	R1184M
49.249	1.6	323832	PRACTICE_WORD	n/a	n/a	BEAM	5	0	-1	[0, 0, 0]	n/a	0	0	0	n/a	n/a	0.0	0	0	0	FR2	3	R1184M
51.783	1.6	325099	PRACTICE_WORD	n/a	n/a	WAGON	6	0	-1	[0, 0, 0]	n/a	0	0	0	n/a	n/a	0.0	0	0	0	FR2	3	R1184M
54.4	1.6	326407	PRACTICE_WORD	n/a	n/a	TONGUE	7	0	-1	[0, 0, 0]	n/a	0	0	0	n/a	n/a	0.0	0	0	0	FR2	3	R1184M
56.883	1.6	327649	PRACTICE_WORD	n/a	n/a	COTTON	8	0	-1	[0, 0, 0]	n/a	0	0	0	n/a	n/a	0.0	0	0	0	FR2	3	R1184M
59.468	1.6	328941	PRACTICE_WORD	n/a	n/a	CHEST	9	0	-1	[0, 0, 0]	n/a	0	0	0	n/a	n/a	0.0	0	0	0	FR2	3	R1184M
61.884	1.6	330149	PRACTICE_WORD	n/a	n/a	CAMEL	10	0	-1	[0, 0, 0]	n/a	0	0	0	n/a	n/a	0.0	0	0	0	FR2	3	R1184M
64.369	1.6	331391	PRACTICE_WORD	n/a	n/a	ATTIC	11	0	-1	[0, 0, 0]	n/a	0	0	0	n/a	n/a	0.0	0	0	0	FR2	3	R1184M
66.869	1.6	332641	PRACTICE_WORD	n/a	n/a	RHINO	12	0	-1	[0, 0, 0]	n/a	0	0	0	n/a	n/a	0.0	0	0	0	FR2	3	R1184M
68.487	0.0	333450	PRACTICE_DISTRACT_START	n/a	n/a	n/a	-999	0	-1	[0, 0, 0]	n/a	0	0	0	n/a	n/a	0.0	0	0	0	FR2	3	R1184M
68.487	0.016	333450	START	n/a	n/a	n/a	-999	0	-1	[-999, -999, -999]	n/a	0	0	0	n/a	n/a	0.0	0	0	0	FR2	3	R1184M
68.503	9.434	333458	PROB	9.403	n/a	n/a	-999	0	-1	[5, 8, 2]	15	0	0	0	n/a	n/a	0.0	0	0	0	FR2	3	R1184M
77.937	8.403	338175	PROB	8.378	n/a	n/a	-999	0	-1	[8, 8, 9]	23	0	0	0	n/a	n/a	0.0	0	0	0	FR2	3	R1184M
86.34	19.399	342376	PROB	19.399	n/a	n/a	-999	0	-1	[9, 4, 4]	19	0	0	0	n/a	n/a	0.0	0	0	0	FR2	3	R1184M
105.739	0.005	352075	STOP	n/a	n/a	n/a	-999	0	-1	[-999, -999, -999]	n/a	0	0	0	n/a	n/a	0.0	0	0	0	FR2	3	R1184M
105.744	0.719	352077	PRACTICE_DISTRACT_END	n/a	n/a	n/a	-999	0	-1	[0, 0, 0]	n/a	0	0	0	n/a	n/a	0.0	0	0	0	FR2	3	R1184M
106.463	30.513	352437	PRACTICE_REC_START	n/a	n/a	n/a	-999	0	-1	[0, 0, 0]	n/a	0	0	0	n/a	n/a	0.0	0	0	0	FR2	3	R1184M
136.976	27.262	367692	PRACTICE_REC_END	n/a	n/a	n/a	-999	0	-1	[0, 0, 0]	n/a	0	0	0	n/a	n/a	0.0	0	0	0	FR2	3	R1184M
164.238	10.0	381322	COUNTDOWN_START	n/a	n/a	n/a	-999	0	1	[0, 0, 0]	n/a	0	1	0	n/a	n/a	0.0	0	0	0	FR2	3	R1184M
164.239	10.427	381322	TRIAL	n/a	n/a	n/a	-999	0	1	[0, 0, 0]	n/a	0	1	0	n/a	n/a	0.0	0	0	0	FR2	3	R1184M
174.666	0.008	386535	COUNTDOWN_END	n/a	n/a	n/a	-999	0	1	[0, 0, 0]	n/a	0	1	0	n/a	n/a	0.0	0	0	0	FR2	3	R1184M
174.674	1.6	386539	ORIENT	n/a	n/a	n/a	-999	0	1	[0, 0, 0]	n/a	0	1	0	n/a	n/a	0.0	0	0	0	FR2	3	R1184M
177.257	1.6	387831	WORD	n/a	wordpools/wordpool_EN.txt	CLOTH	1	0	1	[0, 0, 0]	n/a	0	1	0	n/a	n/a	0.0	0	0	0	FR2	3	R1184M
179.791	1.6	389098	WORD	n/a	wordpools/wordpool_EN.txt	LAKE	2	1	1	[0, 0, 0]	n/a	0	1	0	n/a	n/a	0.0	0	0	0	FR2	3	R1184M
182.115	4.6	390260	STIM_ON	n/a	n/a	n/a	-999	0	1	[0, 0, 0]	n/a	1	1	4600	RIPS3	RIPS4	750.0	50	230	300	FR2	3	R1184M
182.325	1.6	390365	WORD	n/a	wordpools/wordpool_EN.txt	KITE	3	0	1	[0, 0, 0]	n/a	1	1	4600	RIPS3	RIPS4	750.0	50	230	300	FR2	3	R1184M
184.941	1.6	391673	WORD	n/a	wordpools/wordpool_EN.txt	MOUSE	4	1	1	[0, 0, 0]	n/a	1	1	4600	RIPS3	RIPS4	750.0	50	230	300	FR2	3	R1184M
187.343	1.6	392873	WORD	n/a	wordpools/wordpool_EN.txt	SNOW	5	1	1	[0, 0, 0]	n/a	0	1	0	n/a	n/a	0.0	0	0	0	FR2	3	R1184M
189.76	1.6	394082	WORD	n/a	wordpools/wordpool_EN.txt	MULE	6	1	1	[0, 0, 0]	n/a	0	1	0	n/a	n/a	0.0	0	0	0	FR2	3	R1184M
192.143	4.6	395273	STIM_ON	n/a	n/a	n/a	-999	0	1	[0, 0, 0]	n/a	1	1	4600	RIPS3	RIPS4	750.0	50	230	300	FR2	3	R1184M
192.36	1.6	395382	WORD	n/a	wordpools/wordpool_EN.txt	JEEP	7	0	1	[0, 0, 0]	n/a	1	1	4600	RIPS3	RIPS4	750.0	50	230	300	FR2	3	R1184M
194.761	1.6	396582	WORD	n/a	wordpools/wordpool_EN.txt	DOCK	8	0	1	[0, 0, 0]	n/a	1	1	4600	RIPS3	RIPS4	750.0	50	230	300	FR2	3	R1184M
197.278	1.6	397841	WORD	n/a	wordpools/wordpool_EN.txt	DESK	9	0	1	[0, 0, 0]	n/a	0	1	0	n/a	n/a	0.0	0	0	0	FR2	3	R1184M
199.828	1.6	399115	WORD	n/a	wordpools/wordpool_EN.txt	STAR	10	0	1	[0, 0, 0]	n/a	0	1	0	n/a	n/a	0.0	0	0	0	FR2	3	R1184M
202.116	4.6	400259	STIM_ON	n/a	n/a	n/a	-999	0	1	[0, 0, 0]	n/a	1	1	4600	RIPS3	RIPS4	750.0	50	230	300	FR2	3	R1184M
202.329	1.6	400366	WORD	n/a	wordpools/wordpool_EN.txt	COUCH	11	0	1	[0, 0, 0]	n/a	1	1	4600	RIPS3	RIPS4	750.0	50	230	300	FR2	3	R1184M
204.779	1.6	401591	WORD	n/a	wordpools/wordpool_EN.txt	BOOT	12	1	1	[0, 0, 0]	n/a	1	1	4600	RIPS3	RIPS4	750.0	50	230	300	FR2	3	R1184M
206.396	0.001	402399	DISTRACT_START	n/a	n/a	n/a	-999	0	1	[0, 0, 0]	n/a	1	1	4600	RIPS3	RIPS4	750.0	50	230	300	FR2	3	R1184M
206.397	0.016	402400	START	n/a	n/a	n/a	-999	0	1	[-999, -999, -999]	n/a	0	1	0	n/a	n/a	0.0	0	0	0	FR2	3	R1184M
206.413	7.335	402408	PROB	7.302	n/a	n/a	-999	0	1	[4, 1, 8]	13	0	1	0	n/a	n/a	0.0	0	0	0	FR2	3	R1184M
213.748	10.385	406075	PROB	10.351	n/a	n/a	-999	0	1	[8, 6, 6]	15	0	1	0	n/a	n/a	0.0	0	0	0	FR2	3	R1184M
224.133	6.686	411267	PROB	6.686	n/a	n/a	-999	0	1	[2, 2, 4]	9	0	1	0	n/a	n/a	0.0	0	0	0	FR2	3	R1184M
230.819	0.015	414610	STOP	n/a	n/a	n/a	-999	0	1	[-999, -999, -999]	n/a	0	1	0	n/a	n/a	0.0	0	0	0	FR2	3	R1184M
230.834	1.223	414617	DISTRACT_END	n/a	n/a	n/a	-999	0	1	[0, 0, 0]	n/a	0	1	0	n/a	n/a	0.0	0	0	0	FR2	3	R1184M
232.057	0.312	415229	REC_START	n/a	n/a	n/a	-999	0	1	[0, 0, 0]	n/a	0	1	0	n/a	n/a	0.0	0	0	0	FR2	3	R1184M
232.369	0.445	415385	REC_WORD	0.312	n/a	PLATE	-999	0	1	[0, 0, 0]	n/a	0	1	0	n/a	n/a	0.0	0	0	0	FR2	3	R1184M
232.814	0.416	415607	REC_WORD	0.757	n/a	LAKE	2	1	1	[0, 0, 0]	n/a	0	1	0	n/a	n/a	0.0	0	0	0	FR2	3	R1184M
233.23	0.572	415815	REC_WORD	1.173	n/a	MOUSE	4	1	1	[0, 0, 0]	n/a	0	1	0	n/a	n/a	0.0	0	0	0	FR2	3	R1184M
233.802	0.664	416101	REC_WORD	1.745	n/a	SNOW	5	1	1	[0, 0, 0]	n/a	0	1	0	n/a	n/a	0.0	0	0	0	FR2	3	R1184M
234.466	5.624	416433	REC_WORD	2.409	n/a	BOOT	12	1	1	[0, 0, 0]	n/a	0	1	0	n/a	n/a	0.0	0	0	0	FR2	3	R1184M
240.09	21.971	419245	REC_WORD	8.033	n/a	MULE	6	1	1	[0, 0, 0]	n/a	0	1	0	n/a	n/a	0.0	0	0	0	FR2	3	R1184M
262.061	45.438	430229	REC_END	n/a	n/a	n/a	-999	0	1	[0, 0, 0]	n/a	0	1	0	n/a	n/a	0.0	0	0	0	FR2	3	R1184M
307.499	0.0	452947	TRIAL	n/a	n/a	n/a	-999	0	2	[0, 0, 0]	n/a	0	1	0	n/a	n/a	0.0	0	0	0	FR2	3	R1184M
307.499	10.0	452947	COUNTDOWN_START	n/a	n/a	n/a	-999	0	2	[0, 0, 0]	n/a	0	1	0	n/a	n/a	0.0	0	0	0	FR2	3	R1184M
317.927	0.007	458160	COUNTDOWN_END	n/a	n/a	n/a	-999	0	2	[0, 0, 0]	n/a	0	1	0	n/a	n/a	0.0	0	0	0	FR2	3	R1184M
317.934	1.6	458164	ORIENT	n/a	n/a	n/a	-999	0	2	[0, 0, 0]	n/a	0	1	0	n/a	n/a	0.0	0	0	0	FR2	3	R1184M
320.222	4.6	459308	STIM_ON	n/a	n/a	n/a	-999	0	2	[0, 0, 0]	n/a	1	1	4600	RIPS3	RIPS4	750.0	50	230	300	FR2	3	R1184M
320.435	1.6	459414	WORD	n/a	wordpools/wordpool_EN.txt	DEER	1	1	2	[0, 0, 0]	n/a	1	1	4600	RIPS3	RIPS4	750.0	50	230	300	FR2	3	R1184M
322.836	1.6	460614	WORD	n/a	wordpools/wordpool_EN.txt	CUP	2	1	2	[0, 0, 0]	n/a	1	1	4600	RIPS3	RIPS4	750.0	50	230	300	FR2	3	R1184M
325.353	1.6	461873	WORD	n/a	wordpools/wordpool_EN.txt	JUICE	3	0	2	[0, 0, 0]	n/a	0	1	0	n/a	n/a	0.0	0	0	0	FR2	3	R1184M
327.869	1.6	463131	WORD	n/a	wordpools/wordpool_EN.txt	WAND	4	1	2	[0, 0, 0]	n/a	0	1	0	n/a	n/a	0.0	0	0	0	FR2	3	R1184M
330.044	4.6	464218	STIM_ON	n/a	n/a	n/a	-999	0	2	[0, 0, 0]	n/a	1	1	4600	RIPS3	RIPS4	750.0	50	230	300	FR2	3	R1184M
330.254	1.6	464323	WORD	n/a	wordpools/wordpool_EN.txt	GRAPE	5	0	2	[0, 0, 0]	n/a	1	1	4600	RIPS3	RIPS4	750.0	50	230	300	FR2	3	R1184M
332.754	1.6	465573	WORD	n/a	wordpools/wordpool_EN.txt	CRANE	6	1	2	[0, 0, 0]	n/a	1	1	4600	RIPS3	RIPS4	750.0	50	230	300	FR2	3	R1184M
335.221	1.6	466806	WORD	n/a	wordpools/wordpool_EN.txt	TOE	7	0	2	[0, 0, 0]	n/a	0	1	0	n/a	n/a	0.0	0	0	0	FR2	3	R1184M
337.805	1.6	468098	WORD	n/a	wordpools/wordpool_EN.txt	BANK	8	0	2	[0, 0, 0]	n/a	0	1	0	n/a	n/a	0.0	0	0	0	FR2	3	R1184M
340.204	4.6	469298	STIM_ON	n/a	n/a	n/a	-999	0	2	[0, 0, 0]	n/a	1	1	4600	RIPS3	RIPS4	750.0	50	230	300	FR2	3	R1184M
340.405	1.6	469398	WORD	n/a	wordpools/wordpool_EN.txt	WALL	9	0	2	[0, 0, 0]	n/a	1	1	4600	RIPS3	RIPS4	750.0	50	230	300	FR2	3	R1184M
342.972	1.6	470682	WORD	n/a	wordpools/wordpool_EN.txt	CLOWN	10	1	2	[0, 0, 0]	n/a	1	1	4600	RIPS3	RIPS4	750.0	50	230	300	FR2	3	R1184M
345.523	1.6	471957	WORD	n/a	wordpools/wordpool_EN.txt	MAZE	11	0	2	[0, 0, 0]	n/a	0	1	0	n/a	n/a	0.0	0	0	0	FR2	3	R1184M
347.923	1.6	473157	WORD	n/a	wordpools/wordpool_EN.txt	PIE	12	1	2	[0, 0, 0]	n/a	0	1	0	n/a	n/a	0.0	0	0	0	FR2	3	R1184M
349.541	0.0	473966	DISTRACT_START	n/a	n/a	n/a	-999	0	2	[0, 0, 0]	n/a	0	1	0	n/a	n/a	0.0	0	0	0	FR2	3	R1184M
349.541	0.016	473966	START	n/a	n/a	n/a	-999	0	2	[-999, -999, -999]	n/a	0	1	0	n/a	n/a	0.0	0	0	0	FR2	3	R1184M
349.557	12.368	473974	PROB	12.341	n/a	n/a	-999	0	2	[6, 4, 3]	13	0	1	0	n/a	n/a	0.0	0	0	0	FR2	3	R1184M
361.925	8.742	480157	PROB	8.742	n/a	n/a	-999	0	2	[9, 3, 8]	21	0	1	0	n/a	n/a	0.0	0	0	0	FR2	3	R1184M
370.667	0.011	484528	STOP	n/a	n/a	n/a	-999	0	2	[-999, -999, -999]	n/a	0	1	0	n/a	n/a	0.0	0	0	0	FR2	3	R1184M
370.678	1.051	484533	DISTRACT_END	n/a	n/a	n/a	-999	0	2	[0, 0, 0]	n/a	0	1	0	n/a	n/a	0.0	0	0	0	FR2	3	R1184M
371.729	0.526	485059	REC_START	n/a	n/a	n/a	-999	0	2	[0, 0, 0]	n/a	0	1	0	n/a	n/a	0.0	0	0	0	FR2	3	R1184M
372.255	0.375	485322	REC_WORD	0.526	n/a	DEER	1	1	2	[0, 0, 0]	n/a	0	1	0	n/a	n/a	0.0	0	0	0	FR2	3	R1184M
372.63	0.999	485509	REC_WORD	0.901	n/a	CUP	2	1	2	[0, 0, 0]	n/a	0	1	0	n/a	n/a	0.0	0	0	0	FR2	3	R1184M
373.629	0.723	486009	REC_WORD	1.9	n/a	CRANE	6	1	2	[0, 0, 0]	n/a	0	1	0	n/a	n/a	0.0	0	0	0	FR2	3	R1184M
374.352	0.921	486370	REC_WORD	2.623	n/a	CLOWN	10	1	2	[0, 0, 0]	n/a	0	1	0	n/a	n/a	0.0	0	0	0	FR2	3	R1184M
375.273	1.768	486831	REC_WORD	3.544	n/a	WAND	4	1	2	[0, 0, 0]	n/a	0	1	0	n/a	n/a	0.0	0	0	0	FR2	3	R1184M
377.041	24.699	487715	REC_WORD	5.312	n/a	PIE	12	1	2	[0, 0, 0]	n/a	0	1	0	n/a	n/a	0.0	0	0	0	FR2	3	R1184M
401.74	4.745	500063	REC_END	n/a	n/a	n/a	-999	0	2	[0, 0, 0]	n/a	0	1	0	n/a	n/a	0.0	0	0	0	FR2	3	R1184M
406.485	0.0	502436	TRIAL	n/a	n/a	n/a	-999	0	3	[0, 0, 0]	n/a	0	1	0	n/a	n/a	0.0	0	0	0	FR2	3	R1184M
406.485	10.0	502436	COUNTDOWN_START	n/a	n/a	n/a	-999	0	3	[0, 0, 0]	n/a	0	1	0	n/a	n/a	0.0	0	0	0	FR2	3	R1184M
416.913	0.006	507649	COUNTDOWN_END	n/a	n/a	n/a	-999	0	3	[0, 0, 0]	n/a	0	1	0	n/a	n/a	0.0	0	0	0	FR2	3	R1184M
416.919	1.6	507652	ORIENT	n/a	n/a	n/a	-999	0	3	[0, 0, 0]	n/a	0	1	0	n/a	n/a	0.0	0	0	0	FR2	3	R1184M
419.371	1.6	508878	WORD	n/a	wordpools/wordpool_EN.txt	CROWN	1	1	3	[0, 0, 0]	n/a	0	1	0	n/a	n/a	0.0	0	0	0	FR2	3	R1184M
421.92	1.6	510152	WORD	n/a	wordpools/wordpool_EN.txt	TOAST	2	0	3	[0, 0, 0]	n/a	0	1	0	n/a	n/a	0.0	0	0	0	FR2	3	R1184M
424.324	4.6	511354	STIM_ON	n/a	n/a	n/a	-999	0	3	[0, 0, 0]	n/a	1	1	4600	RIPS3	RIPS4	750.0	50	230	300	FR2	3	R1184M
424.538	1.6	511461	WORD	n/a	wordpools/wordpool_EN.txt	LIP	3	0	3	[0, 0, 0]	n/a	1	1	4600	RIPS3	RIPS4	750.0	50	230	300	FR2	3	R1184M
427.004	1.6	512694	WORD	n/a	wordpools/wordpool_EN.txt	GOLD	4	0	3	[0, 0, 0]	n/a	1	1	4600	RIPS3	RIPS4	750.0	50	230	300	FR2	3	R1184M
429.539	1.6	513962	WORD	n/a	wordpools/wordpool_EN.txt	BAG	5	0	3	[0, 0, 0]	n/a	0	1	0	n/a	n/a	0.0	0	0	0	FR2	3	R1184M
432.022	1.6	515203	WORD	n/a	wordpools/wordpool_EN.txt	PLATE	6	0	3	[0, 0, 0]	n/a	0	1	0	n/a	n/a	0.0	0	0	0	FR2	3	R1184M
434.211	4.6	516297	STIM_ON	n/a	n/a	n/a	-999	0	3	[0, 0, 0]	n/a	1	1	4600	RIPS3	RIPS4	750.0	50	230	300	FR2	3	R1184M
434.424	1.6	516404	WORD	n/a	wordpools/wordpool_EN.txt	CANE	7	0	3	[0, 0, 0]	n/a	1	1	4600	RIPS3	RIPS4	750.0	50	230	300	FR2	3	R1184M
437.023	1.6	517703	WORD	n/a	wordpools/wordpool_EN.txt	FROG	8	0	3	[0, 0, 0]	n/a	1	1	4600	RIPS3	RIPS4	750.0	50	230	300	FR2	3	R1184M
439.441	1.6	518912	WORD	n/a	wordpools/wordpool_EN.txt	BLOOM	9	0	3	[0, 0, 0]	n/a	0	1	0	n/a	n/a	0.0	0	0	0	FR2	3	R1184M
441.891	1.6	520137	WORD	n/a	wordpools/wordpool_EN.txt	LOCK	10	0	3	[0, 0, 0]	n/a	0	1	0	n/a	n/a	0.0	0	0	0	FR2	3	R1184M
444.139	4.6	521261	STIM_ON	n/a	n/a	n/a	-999	0	3	[0, 0, 0]	n/a	1	1	4600	RIPS3	RIPS4	750.0	50	230	300	FR2	3	R1184M
444.342	1.6	521362	WORD	n/a	wordpools/wordpool_EN.txt	PIT	11	1	3	[0, 0, 0]	n/a	1	1	4600	RIPS3	RIPS4	750.0	50	230	300	FR2	3	R1184M
446.793	1.6	522588	WORD	n/a	wordpools/wordpool_EN.txt	POLE	12	0	3	[0, 0, 0]	n/a	1	1	4600	RIPS3	RIPS4	750.0	50	230	300	FR2	3	R1184M
448.41	0.001	523396	DISTRACT_START	n/a	n/a	n/a	-999	0	3	[0, 0, 0]	n/a	1	1	4600	RIPS3	RIPS4	750.0	50	230	300	FR2	3	R1184M
448.411	0.015	523397	START	n/a	n/a	n/a	-999	0	3	[-999, -999, -999]	n/a	0	1	0	n/a	n/a	0.0	0	0	0	FR2	3	R1184M
448.426	14.736	523404	PROB	14.713	n/a	n/a	-999	0	3	[6, 8, 1]	14	0	1	0	n/a	n/a	0.0	0	0	0	FR2	3	R1184M
463.162	31.081	530772	PROB	31.081	n/a	n/a	-999	0	3	[9, 6, 3]	18	0	1	0	n/a	n/a	0.0	0	0	0	FR2	3	R1184M
494.243	0.009	546311	STOP	n/a	n/a	n/a	-999	0	3	[-999, -999, -999]	n/a	0	1	0	n/a	n/a	0.0	0	0	0	FR2	3	R1184M
494.252	1.134	546315	DISTRACT_END	n/a	n/a	n/a	-999	0	3	[0, 0, 0]	n/a	0	1	0	n/a	n/a	0.0	0	0	0	FR2	3	R1184M
495.386	0.757	546882	REC_START	n/a	n/a	n/a	-999	0	3	[0, 0, 0]	n/a	0	1	0	n/a	n/a	0.0	0	0	0	FR2	3	R1184M
496.143	0.558	547261	REC_WORD	0.757	n/a	CROWN	1	1	3	[0, 0, 0]	n/a	0	1	0	n/a	n/a	0.0	0	0	0	FR2	3	R1184M
496.701	28.695	547540	REC_WORD	1.315	n/a	PIT	11	1	3	[0, 0, 0]	n/a	0	1	0	n/a	n/a	0.0	0	0	0	FR2	3	R1184M
525.396	9.014	561886	REC_END	n/a	n/a	n/a	-999	0	3	[0, 0, 0]	n/a	0	1	0	n/a	n/a	0.0	0	0	0	FR2	3	R1184M
534.41	0.0	566393	TRIAL	n/a	n/a	n/a	-999	0	4	[0, 0, 0]	n/a	0	1	0	n/a	n/a	0.0	0	0	0	FR2	3	R1184M
534.41	10.0	566393	COUNTDOWN_START	n/a	n/a	n/a	-999	0	4	[0, 0, 0]	n/a	0	1	0	n/a	n/a	0.0	0	0	0	FR2	3	R1184M
544.838	0.006	571606	COUNTDOWN_END	n/a	n/a	n/a	-999	0	4	[0, 0, 0]	n/a	0	1	0	n/a	n/a	0.0	0	0	0	FR2	3	R1184M
544.844	1.6	571609	ORIENT	n/a	n/a	n/a	-999	0	4	[0, 0, 0]	n/a	0	1	0	n/a	n/a	0.0	0	0	0	FR2	3	R1184M
547.229	1.6	572802	WORD	n/a	wordpools/wordpool_EN.txt	TOAD	1	1	4	[0, 0, 0]	n/a	0	1	0	n/a	n/a	0.0	0	0	0	FR2	3	R1184M
549.796	1.6	574085	WORD	n/a	wordpools/wordpool_EN.txt	BARN	2	1	4	[0, 0, 0]	n/a	0	1	0	n/a	n/a	0.0	0	0	0	FR2	3	R1184M
552.207	4.6	575291	STIM_ON	n/a	n/a	n/a	-999	0	4	[0, 0, 0]	n/a	1	1	4600	RIPS3	RIPS4	750.0	50	230	300	FR2	3	R1184M
552.413	1.6	575394	WORD	n/a	wordpools/wordpool_EN.txt	FAN	3	0	4	[0, 0, 0]	n/a	1	1	4600	RIPS3	RIPS4	750.0	50	230	300	FR2	3	R1184M
554.83	1.6	576602	WORD	n/a	wordpools/wordpool_EN.txt	POOL	4	0	4	[0, 0, 0]	n/a	1	1	4600	RIPS3	RIPS4	750.0	50	230	300	FR2	3	R1184M
557.297	1.6	577835	WORD	n/a	wordpools/wordpool_EN.txt	GATE	5	0	4	[0, 0, 0]	n/a	0	1	0	n/a	n/a	0.0	0	0	0	FR2	3	R1184M
559.798	1.6	579086	WORD	n/a	wordpools/wordpool_EN.txt	STRING	6	0	4	[0, 0, 0]	n/a	0	1	0	n/a	n/a	0.0	0	0	0	FR2	3	R1184M
562.003	4.6	580188	STIM_ON	n/a	n/a	n/a	-999	0	4	[0, 0, 0]	n/a	1	1	4600	RIPS3	RIPS4	750.0	50	230	300	FR2	3	R1184M
562.215	1.6	580294	WORD	n/a	wordpools/wordpool_EN.txt	LAMP	7	0	4	[0, 0, 0]	n/a	1	1	4600	RIPS3	RIPS4	750.0	50	230	300	FR2	3	R1184M
564.632	1.6	581503	WORD	n/a	wordpools/wordpool_EN.txt	YARD	8	0	4	[0, 0, 0]	n/a	1	1	4600	RIPS3	RIPS4	750.0	50	230	300	FR2	3	R1184M
567.216	1.6	582794	WORD	n/a	wordpools/wordpool_EN.txt	THREAD	9	1	4	[0, 0, 0]	n/a	0	1	0	n/a	n/a	0.0	0	0	0	FR2	3	R1184M
569.799	1.6	584086	WORD	n/a	wordpools/wordpool_EN.txt	ROSE	10	0	4	[0, 0, 0]	n/a	0	1	0	n/a	n/a	0.0	0	0	0	FR2	3	R1184M
572.012	4.6	585192	STIM_ON	n/a	n/a	n/a	-999	0	4	[0, 0, 0]	n/a	1	1	4600	RIPS3	RIPS4	750.0	50	230	300	FR2	3	R1184M
572.217	1.6	585295	WORD	n/a	wordpools/wordpool_EN.txt	HILL	11	1	4	[0, 0, 0]	n/a	1	1	4600	RIPS3	RIPS4	750.0	50	230	300	FR2	3	R1184M
574.667	1.6	586520	WORD	n/a	wordpools/wordpool_EN.txt	WHALE	12	0	4	[0, 0, 0]	n/a	1	1	4600	RIPS3	RIPS4	750.0	50	230	300	FR2	3	R1184M
576.284	0.001	587328	DISTRACT_START	n/a	n/a	n/a	-999	0	4	[0, 0, 0]	n/a	1	1	4600	RIPS3	RIPS4	750.0	50	230	300	FR2	3	R1184M
576.285	0.016	587329	START	n/a	n/a	n/a	-999	0	4	[-999, -999, -999]	n/a	0	1	0	n/a	n/a	0.0	0	0	0	FR2	3	R1184M
576.301	11.369	587337	PROB	11.342	n/a	n/a	-999	0	4	[1, 9, 4]	14	0	1	0	n/a	n/a	0.0	0	0	0	FR2	3	R1184M
587.67	25.093	593021	PROB	25.093	n/a	n/a	-999	0	4	[2, 7, 8]	17	0	1	0	n/a	n/a	0.0	0	0	0	FR2	3	R1184M
612.763	0.012	605566	STOP	n/a	n/a	n/a	-999	0	4	[-999, -999, -999]	n/a	0	1	0	n/a	n/a	0.0	0	0	0	FR2	3	R1184M
612.775	1.199	605572	DISTRACT_END	n/a	n/a	n/a	-999	0	4	[0, 0, 0]	n/a	0	1	0	n/a	n/a	0.0	0	0	0	FR2	3	R1184M
613.974	0.632	606172	REC_START	n/a	n/a	n/a	-999	0	4	[0, 0, 0]	n/a	0	1	0	n/a	n/a	0.0	0	0	0	FR2	3	R1184M
614.606	0.349	606488	REC_WORD	0.632	n/a	TOAD	1	1	4	[0, 0, 0]	n/a	0	1	0	n/a	n/a	0.0	0	0	0	FR2	3	R1184M
614.955	0.534	606662	REC_WORD	0.981	n/a	FARM	-999	0	4	[0, 0, 0]	n/a	0	1	0	n/a	n/a	0.0	0	0	0	FR2	3	R1184M
615.489	0.538	606929	REC_WORD	1.515	n/a	THREAD	9	1	4	[0, 0, 0]	n/a	0	1	0	n/a	n/a	0.0	0	0	0	FR2	3	R1184M
616.027	0.595	607198	REC_WORD	2.053	n/a	HILL	11	1	4	[0, 0, 0]	n/a	0	1	0	n/a	n/a	0.0	0	0	0	FR2	3	R1184M
616.622	2.829	607495	REC_WORD	2.648	n/a	TOY	-999	0	4	[0, 0, 0]	n/a	0	1	0	n/a	n/a	0.0	0	0	0	FR2	3	R1184M
619.451	3.508	608910	REC_WORD	5.477	n/a	BARN	2	1	4	[0, 0, 0]	n/a	0	1	0	n/a	n/a	0.0	0	0	0	FR2	3	R1184M
622.959	21.028	610664	REC_WORD	8.985	n/a	TOAD	1	1	4	[0, 0, 0]	n/a	0	1	0	n/a	n/a	0.0	0	0	0	FR2	3	R1184M
643.987	6.545	621177	REC_END	n/a	n/a	n/a	-999	0	4	[0, 0, 0]	n/a	0	1	0	n/a	n/a	0.0	0	0	0	FR2	3	R1184M
650.532	0.0	624449	TRIAL	n/a	n/a	n/a	-999	0	5	[0, 0, 0]	n/a	0	0	0	n/a	n/a	0.0	0	0	0	FR2	3	R1184M
650.532	10.0	624449	COUNTDOWN_START	n/a	n/a	n/a	-999	0	5	[0, 0, 0]	n/a	0	0	0	n/a	n/a	0.0	0	0	0	FR2	3	R1184M
660.96	0.006	629663	COUNTDOWN_END	n/a	n/a	n/a	-999	0	5	[0, 0, 0]	n/a	0	0	0	n/a	n/a	0.0	0	0	0	FR2	3	R1184M
660.966	1.6	629666	ORIENT	n/a	n/a	n/a	-999	0	5	[0, 0, 0]	n/a	0	0	0	n/a	n/a	0.0	0	0	0	FR2	3	R1184M
663.418	1.6	630892	WORD	n/a	wordpools/wordpool_EN.txt	SEAL	1	0	5	[0, 0, 0]	n/a	0	0	0	n/a	n/a	0.0	0	0	0	FR2	3	R1184M
665.984	1.6	632174	WORD	n/a	wordpools/wordpool_EN.txt	WING	2	0	5	[0, 0, 0]	n/a	0	0	0	n/a	n/a	0.0	0	0	0	FR2	3	R1184M
668.485	1.6	633425	WORD	n/a	wordpools/wordpool_EN.txt	BED	3	1	5	[0, 0, 0]	n/a	0	0	0	n/a	n/a	0.0	0	0	0	FR2	3	R1184M
670.968	1.6	634666	WORD	n/a	wordpools/wordpool_EN.txt	PANTS	4	0	5	[0, 0, 0]	n/a	0	0	0	n/a	n/a	0.0	0	0	0	FR2	3	R1184M
673.519	1.6	635942	WORD	n/a	wordpools/wordpool_EN.txt	FOX	5	1	5	[0, 0, 0]	n/a	0	0	0	n/a	n/a	0.0	0	0	0	FR2	3	R1184M
676.019	1.6	637192	WORD	n/a	wordpools/wordpool_EN.txt	FLAME	6	0	5	[0, 0, 0]	n/a	0	0	0	n/a	n/a	0.0	0	0	0	FR2	3	R1184M
678.437	1.6	638400	WORD	n/a	wordpools/wordpool_EN.txt	SHRIMP	7	0	5	[0, 0, 0]	n/a	0	0	0	n/a	n/a	0.0	0	0	0	FR2	3	R1184M
680.821	1.6	639592	WORD	n/a	wordpools/wordpool_EN.txt	CAR	8	0	5	[0, 0, 0]	n/a	0	0	0	n/a	n/a	0.0	0	0	0	FR2	3	R1184M
683.288	1.6	640826	WORD	n/a	wordpools/wordpool_EN.txt	BOMB	9	0	5	[0, 0, 0]	n/a	0	0	0	n/a	n/a	0.0	0	0	0	FR2	3	R1184M
685.722	1.6	642043	WORD	n/a	wordpools/wordpool_EN.txt	STORM	10	0	5	[0, 0, 0]	n/a	0	0	0	n/a	n/a	0.0	0	0	0	FR2	3	R1184M
688.173	1.6	643268	WORD	n/a	wordpools/wordpool_EN.txt	PIPE	11	0	5	[0, 0, 0]	n/a	0	0	0	n/a	n/a	0.0	0	0	0	FR2	3	R1184M
690.756	1.6	644559	WORD	n/a	wordpools/wordpool_EN.txt	WORLD	12	0	5	[0, 0, 0]	n/a	0	0	0	n/a	n/a	0.0	0	0	0	FR2	3	R1184M
692.373	0.001	645368	DISTRACT_START	n/a	n/a	n/a	-999	0	5	[0, 0, 0]	n/a	0	0	0	n/a	n/a	0.0	0	0	0	FR2	3	R1184M
692.374	0.016	645368	START	n/a	n/a	n/a	-999	0	5	[-999, -999, -999]	n/a	0	0	0	n/a	n/a	0.0	0	0	0	FR2	3	R1184M
692.39	53.221	645376	PROB	53.221	n/a	n/a	-999	0	5	[9, 4, 5]	18	0	0	0	n/a	n/a	0.0	0	0	0	FR2	3	R1184M
745.611	0.006	671985	STOP	n/a	n/a	n/a	-999	0	5	[-999, -999, -999]	n/a	0	0	0	n/a	n/a	0.0	0	0	0	FR2	3	R1184M
745.617	1.134	671988	DISTRACT_END	n/a	n/a	n/a	-999	0	5	[0, 0, 0]	n/a	0	0	0	n/a	n/a	0.0	0	0	0	FR2	3	R1184M
746.751	0.819	672555	REC_START	n/a	n/a	n/a	-999	0	5	[0, 0, 0]	n/a	0	0	0	n/a	n/a	0.0	0	0	0	FR2	3	R1184M
747.57	0.727	672964	REC_WORD	0.819	n/a	FOX	5	1	5	[0, 0, 0]	n/a	0	0	0	n/a	n/a	0.0	0	0	0	FR2	3	R1184M
748.297	2.112	673328	REC_WORD	1.546	n/a	BED	3	1	5	[0, 0, 0]	n/a	0	0	0	n/a	n/a	0.0	0	0	0	FR2	3	R1184M
750.409	26.354	674384	REC_WORD	3.658	n/a	THREAD	-999	0	5	[0, 0, 0]	n/a	0	0	0	n/a	n/a	0.0	0	0	0	FR2	3	R1184M
776.763	12.145	687559	REC_END	n/a	n/a	n/a	-999	0	5	[0, 0, 0]	n/a	0	0	0	n/a	n/a	0.0	0	0	0	FR2	3	R1184M
788.908	0.0	693631	TRIAL	n/a	n/a	n/a	-999	0	6	[0, 0, 0]	n/a	0	0	0	n/a	n/a	0.0	0	0	0	FR2	3	R1184M
788.908	10.0	693631	COUNTDOWN_START	n/a	n/a	n/a	-999	0	6	[0, 0, 0]	n/a	0	0	0	n/a	n/a	0.0	0	0	0	FR2	3	R1184M
799.336	0.008	698845	COUNTDOWN_END	n/a	n/a	n/a	-999	0	6	[0, 0, 0]	n/a	0	0	0	n/a	n/a	0.0	0	0	0	FR2	3	R1184M
799.344	1.6	698849	ORIENT	n/a	n/a	n/a	-999	0	6	[0, 0, 0]	n/a	0	0	0	n/a	n/a	0.0	0	0	0	FR2	3	R1184M
801.744	1.6	700049	WORD	n/a	wordpools/wordpool_EN.txt	RAT	1	1	6	[0, 0, 0]	n/a	0	0	0	n/a	n/a	0.0	0	0	0	FR2	3	R1184M
804.195	1.6	701274	WORD	n/a	wordpools/wordpool_EN.txt	FORK	2	1	6	[0, 0, 0]	n/a	0	0	0	n/a	n/a	0.0	0	0	0	FR2	3	R1184M
806.778	1.6	702566	WORD	n/a	wordpools/wordpool_EN.txt	FLEA	3	1	6	[0, 0, 0]	n/a	0	0	0	n/a	n/a	0.0	0	0	0	FR2	3	R1184M
809.162	1.6	703758	WORD	n/a	wordpools/wordpool_EN.txt	SNAIL	4	1	6	[0, 0, 0]	n/a	0	0	0	n/a	n/a	0.0	0	0	0	FR2	3	R1184M
811.696	1.6	705025	WORD	n/a	wordpools/wordpool_EN.txt	CLOCK	5	1	6	[0, 0, 0]	n/a	0	0	0	n/a	n/a	0.0	0	0	0	FR2	3	R1184M
814.163	1.6	706258	WORD	n/a	wordpools/wordpool_EN.txt	ROCK	6	0	6	[0, 0, 0]	n/a	0	0	0	n/a	n/a	0.0	0	0	0	FR2	3	R1184M
816.764	1.6	707558	WORD	n/a	wordpools/wordpool_EN.txt	PASTE	7	0	6	[0, 0, 0]	n/a	0	0	0	n/a	n/a	0.0	0	0	0	FR2	3	R1184M
819.248	1.6	708800	WORD	n/a	wordpools/wordpool_EN.txt	DUCK	8	0	6	[0, 0, 0]	n/a	0	0	0	n/a	n/a	0.0	0	0	0	FR2	3	R1184M
821.631	1.6	709992	WORD	n/a	wordpools/wordpool_EN.txt	PIG	9	0	6	[0, 0, 0]	n/a	0	0	0	n/a	n/a	0.0	0	0	0	FR2	3	R1184M
824.215	1.6	711284	WORD	n/a	wordpools/wordpool_EN.txt	CALF	10	0	6	[0, 0, 0]	n/a	0	0	0	n/a	n/a	0.0	0	0	0	FR2	3	R1184M
826.749	1.6	712550	WORD	n/a	wordpools/wordpool_EN.txt	CAVE	11	0	6	[0, 0, 0]	n/a	0	0	0	n/a	n/a	0.0	0	0	0	FR2	3	R1184M
829.366	1.6	713859	WORD	n/a	wordpools/wordpool_EN.txt	TOY	12	0	6	[0, 0, 0]	n/a	0	0	0	n/a	n/a	0.0	0	0	0	FR2	3	R1184M
830.982	0.001	714667	DISTRACT_START	n/a	n/a	n/a	-999	0	6	[0, 0, 0]	n/a	0	0	0	n/a	n/a	0.0	0	0	0	FR2	3	R1184M
830.983	0.016	714667	START	n/a	n/a	n/a	-999	0	6	[-999, -999, -999]	n/a	0	0	0	n/a	n/a	0.0	0	0	0	FR2	3	R1184M
830.999	42.396	714675	PROB	42.396	n/a	n/a	-999	0	6	[9, 7, 3]	18	0	0	0	n/a	n/a	0.0	0	0	0	FR2	3	R1184M
873.395	0.013	735872	STOP	n/a	n/a	n/a	-999	0	6	[-999, -999, -999]	n/a	0	0	0	n/a	n/a	0.0	0	0	0	FR2	3	R1184M
873.408	1.092	735878	DISTRACT_END	n/a	n/a	n/a	-999	0	6	[0, 0, 0]	n/a	0	0	0	n/a	n/a	0.0	0	0	0	FR2	3	R1184M
874.5	0.46	736424	REC_START	n/a	n/a	n/a	-999	0	6	[0, 0, 0]	n/a	0	0	0	n/a	n/a	0.0	0	0	0	FR2	3	R1184M
874.96	0.357	736654	REC_WORD	0.46	n/a	RAT	1	1	6	[0, 0, 0]	n/a	0	0	0	n/a	n/a	0.0	0	0	0	FR2	3	R1184M
875.317	0.351	736832	REC_WORD	0.817	n/a	FORK	2	1	6	[0, 0, 0]	n/a	0	0	0	n/a	n/a	0.0	0	0	0	FR2	3	R1184M
875.668	0.559	737008	REC_WORD	1.168	n/a	FLEA	3	1	6	[0, 0, 0]	n/a	0	0	0	n/a	n/a	0.0	0	0	0	FR2	3	R1184M
876.227	0.657	737287	REC_WORD	1.727	n/a	SNAIL	4	1	6	[0, 0, 0]	n/a	0	0	0	n/a	n/a	0.0	0	0	0	FR2	3	R1184M
876.884	27.617	737616	REC_WORD	2.384	n/a	CLOCK	5	1	6	[0, 0, 0]	n/a	0	0	0	n/a	n/a	0.0	0	0	0	FR2	3	R1184M
904.501	9.098	751423	REC_END	n/a	n/a	n/a	-999	0	6	[0, 0, 0]	n/a	0	0	0	n/a	n/a	0.0	0	0	0	FR2	3	R1184M
913.599	0.0	755972	TRIAL	n/a	n/a	n/a	-999	0	7	[0, 0, 0]	n/a	0	1	0	n/a	n/a	0.0	0	0	0	FR2	3	R1184M
913.599	10.0	755972	COUNTDOWN_START	n/a	n/a	n/a	-999	0	7	[0, 0, 0]	n/a	0	1	0	n/a	n/a	0.0	0	0	0	FR2	3	R1184M
924.027	0.007	761185	COUNTDOWN_END	n/a	n/a	n/a	-999	0	7	[0, 0, 0]	n/a	0	1	0	n/a	n/a	0.0	0	0	0	FR2	3	R1184M
924.034	1.6	761189	ORIENT	n/a	n/a	n/a	-999	0	7	[0, 0, 0]	n/a	0	1	0	n/a	n/a	0.0	0	0	0	FR2	3	R1184M
926.417	4.6	762380	STIM_ON	n/a	n/a	n/a	-999	0	7	[0, 0, 0]	n/a	1	1	4600	RIPS3	RIPS4	750.0	50	230	300	FR2	3	R1184M
926.618	1.6	762481	WORD	n/a	wordpools/wordpool_EN.txt	SHIRT	1	1	7	[0, 0, 0]	n/a	1	1	4600	RIPS3	RIPS4	750.0	50	230	300	FR2	3	R1184M
929.051	1.6	763697	WORD	n/a	wordpools/wordpool_EN.txt	TRUCK	2	1	7	[0, 0, 0]	n/a	1	1	4600	RIPS3	RIPS4	750.0	50	230	300	FR2	3	R1184M
931.586	1.6	764965	WORD	n/a	wordpools/wordpool_EN.txt	PEARL	3	0	7	[0, 0, 0]	n/a	0	1	0	n/a	n/a	0.0	0	0	0	FR2	3	R1184M
934.052	1.6	766198	WORD	n/a	wordpools/wordpool_EN.txt	SHARK	4	1	7	[0, 0, 0]	n/a	0	1	0	n/a	n/a	0.0	0	0	0	FR2	3	R1184M
936.225	4.6	767284	STIM_ON	n/a	n/a	n/a	-999	0	7	[0, 0, 0]	n/a	1	1	4600	RIPS3	RIPS4	750.0	50	230	300	FR2	3	R1184M
936.437	1.6	767390	WORD	n/a	wordpools/wordpool_EN.txt	FLOOR	5	0	7	[0, 0, 0]	n/a	1	1	4600	RIPS3	RIPS4	750.0	50	230	300	FR2	3	R1184M
938.821	1.6	768582	WORD	n/a	wordpools/wordpool_EN.txt	STOVE	6	1	7	[0, 0, 0]	n/a	1	1	4600	RIPS3	RIPS4	750.0	50	230	300	FR2	3	R1184M
941.205	1.6	769774	WORD	n/a	wordpools/wordpool_EN.txt	TRAIN	7	0	7	[0, 0, 0]	n/a	0	1	0	n/a	n/a	0.0	0	0	0	FR2	3	R1184M
943.705	1.6	771024	WORD	n/a	wordpools/wordpool_EN.txt	SPRING	8	0	7	[0, 0, 0]	n/a	0	1	0	n/a	n/a	0.0	0	0	0	FR2	3	R1184M
946.09	4.6	772216	STIM_ON	n/a	n/a	n/a	-999	0	7	[0, 0, 0]	n/a	1	1	4600	RIPS3	RIPS4	750.0	50	230	300	FR2	3	R1184M
946.306	1.6	772324	WORD	n/a	wordpools/wordpool_EN.txt	CAPE	9	1	7	[0, 0, 0]	n/a	1	1	4600	RIPS3	RIPS4	750.0	50	230	300	FR2	3	R1184M
948.789	1.6	773565	WORD	n/a	wordpools/wordpool_EN.txt	PEACH	10	0	7	[0, 0, 0]	n/a	1	1	4600	RIPS3	RIPS4	750.0	50	230	300	FR2	3	R1184M
951.223	1.6	774782	WORD	n/a	wordpools/wordpool_EN.txt	MUG	11	0	7	[0, 0, 0]	n/a	0	1	0	n/a	n/a	0.0	0	0	0	FR2	3	R1184M
953.807	1.6	776074	WORD	n/a	wordpools/wordpool_EN.txt	HAT	12	0	7	[0, 0, 0]	n/a	0	1	0	n/a	n/a	0.0	0	0	0	FR2	3	R1184M
955.424	0.001	776883	DISTRACT_START	n/a	n/a	n/a	-999	0	7	[0, 0, 0]	n/a	0	1	0	n/a	n/a	0.0	0	0	0	FR2	3	R1184M
955.425	0.016	776883	START	n/a	n/a	n/a	-999	0	7	[-999, -999, -999]	n/a	0	1	0	n/a	n/a	0.0	0	0	0	FR2	3	R1184M
955.441	25.074	776891	PROB	25.074	n/a	n/a	-999	0	7	[9, 9, 2]	20	0	1	0	n/a	n/a	0.0	0	0	0	FR2	3	R1184M
980.515	0.014	789427	STOP	n/a	n/a	n/a	-999	0	7	[-999, -999, -999]	n/a	0	1	0	n/a	n/a	0.0	0	0	0	FR2	3	R1184M
980.529	1.101	789434	DISTRACT_END	n/a	n/a	n/a	-999	0	7	[0, 0, 0]	n/a	0	1	0	n/a	n/a	0.0	0	0	0	FR2	3	R1184M
981.63	0.924	789985	REC_START	n/a	n/a	n/a	-999	0	7	[0, 0, 0]	n/a	0	1	0	n/a	n/a	0.0	0	0	0	FR2	3	R1184M
982.554	2.065	790447	REC_WORD	0.924	n/a	SHIRT	1	1	7	[0, 0, 0]	n/a	0	1	0	n/a	n/a	0.0	0	0	0	FR2	3	R1184M
984.619	0.386	791479	REC_WORD	2.989	n/a	SHIRT	1	1	7	[0, 0, 0]	n/a	0	1	0	n/a	n/a	0.0	0	0	0	FR2	3	R1184M
985.005	1.206	791672	REC_WORD	3.375	n/a	SHARK	4	1	7	[0, 0, 0]	n/a	0	1	0	n/a	n/a	0.0	0	0	0	FR2	3	R1184M
986.211	0.935	792275	REC_WORD	4.581	n/a	STOVE	6	1	7	[0, 0, 0]	n/a	0	1	0	n/a	n/a	0.0	0	0	0	FR2	3	R1184M
987.146	0.752	792742	REC_WORD	5.516	n/a	CAVE	-999	0	7	[0, 0, 0]	n/a	0	1	0	n/a	n/a	0.0	0	0	0	FR2	3	R1184M
987.898	1.054	793118	REC_WORD	6.268	n/a	TRUCK	2	1	7	[0, 0, 0]	n/a	0	1	0	n/a	n/a	0.0	0	0	0	FR2	3	R1184M
988.952	22.688	793645	REC_WORD	7.322	n/a	CAPE	9	1	7	[0, 0, 0]	n/a	0	1	0	n/a	n/a	0.0	0	0	0	FR2	3	R1184M
1011.64	6.146	804988	REC_END	n/a	n/a	n/a	-999	0	7	[0, 0, 0]	n/a	0	1	0	n/a	n/a	0.0	0	0	0	FR2	3	R1184M
1017.786	0.0	808061	TRIAL	n/a	n/a	n/a	-999	0	8	[0, 0, 0]	n/a	0	1	0	n/a	n/a	0.0	0	0	0	FR2	3	R1184M
1017.786	10.0	808061	COUNTDOWN_START	n/a	n/a	n/a	-999	0	8	[0, 0, 0]	n/a	0	1	0	n/a	n/a	0.0	0	0	0	FR2	3	R1184M
1028.214	0.007	813275	COUNTDOWN_END	n/a	n/a	n/a	-999	0	8	[0, 0, 0]	n/a	0	1	0	n/a	n/a	0.0	0	0	0	FR2	3	R1184M
1028.221	1.6	813278	ORIENT	n/a	n/a	n/a	-999	0	8	[0, 0, 0]	n/a	0	1	0	n/a	n/a	0.0	0	0	0	FR2	3	R1184M
1030.688	1.6	814512	WORD	n/a	wordpools/wordpool_EN.txt	SKUNK	1	1	8	[0, 0, 0]	n/a	0	1	0	n/a	n/a	0.0	0	0	0	FR2	3	R1184M
1033.189	1.6	815762	WORD	n/a	wordpools/wordpool_EN.txt	SHIP	2	1	8	[0, 0, 0]	n/a	0	1	0	n/a	n/a	0.0	0	0	0	FR2	3	R1184M
1035.429	4.6	816882	STIM_ON	n/a	n/a	n/a	-999	0	8	[0, 0, 0]	n/a	1	1	4600	RIPS3	RIPS4	750.0	50	230	300	FR2	3	R1184M
1035.639	1.6	816987	WORD	n/a	wordpools/wordpool_EN.txt	BREAD	3	0	8	[0, 0, 0]	n/a	1	1	4600	RIPS3	RIPS4	750.0	50	230	300	FR2	3	R1184M
1038.057	1.6	818196	WORD	n/a	wordpools/wordpool_EN.txt	BUSH	4	1	8	[0, 0, 0]	n/a	1	1	4600	RIPS3	RIPS4	750.0	50	230	300	FR2	3	R1184M
1040.557	1.6	819446	WORD	n/a	wordpools/wordpool_EN.txt	CLOUD	5	1	8	[0, 0, 0]	n/a	0	1	0	n/a	n/a	0.0	0	0	0	FR2	3	R1184M
1043.04	1.6	820687	WORD	n/a	wordpools/wordpool_EN.txt	ROAD	6	0	8	[0, 0, 0]	n/a	0	1	0	n/a	n/a	0.0	0	0	0	FR2	3	R1184M
1045.281	4.6	821808	STIM_ON	n/a	n/a	n/a	-999	0	8	[0, 0, 0]	n/a	1	1	4600	RIPS3	RIPS4	750.0	50	230	300	FR2	3	R1184M
1045.491	1.6	821913	WORD	n/a	wordpools/wordpool_EN.txt	SLIME	7	0	8	[0, 0, 0]	n/a	1	1	4600	RIPS3	RIPS4	750.0	50	230	300	FR2	3	R1184M
1048.024	1.6	823179	WORD	n/a	wordpools/wordpool_EN.txt	LAMB	8	0	8	[0, 0, 0]	n/a	1	1	4600	RIPS3	RIPS4	750.0	50	230	300	FR2	3	R1184M
1050.509	1.6	824421	WORD	n/a	wordpools/wordpool_EN.txt	HEART	9	0	8	[0, 0, 0]	n/a	0	1	0	n/a	n/a	0.0	0	0	0	FR2	3	R1184M
1052.908	1.6	825621	WORD	n/a	wordpools/wordpool_EN.txt	BRIDGE	10	0	8	[0, 0, 0]	n/a	0	1	0	n/a	n/a	0.0	0	0	0	FR2	3	R1184M
1055.083	4.6	826708	STIM_ON	n/a	n/a	n/a	-999	0	8	[0, 0, 0]	n/a	1	1	4600	RIPS3	RIPS4	750.0	50	230	300	FR2	3	R1184M
1055.293	1.6	826813	WORD	n/a	wordpools/wordpool_EN.txt	LEAF	11	0	8	[0, 0, 0]	n/a	1	1	4600	RIPS3	RIPS4	750.0	50	230	300	FR2	3	R1184M
1057.794	1.6	828064	WORD	n/a	wordpools/wordpool_EN.txt	PURSE	12	1	8	[0, 0, 0]	n/a	1	1	4600	RIPS3	RIPS4	750.0	50	230	300	FR2	3	R1184M
1059.411	0.0	828872	DISTRACT_START	n/a	n/a	n/a	-999	0	8	[0, 0, 0]	n/a	1	1	4600	RIPS3	RIPS4	750.0	50	230	300	FR2	3	R1184M
1059.411	0.016	828872	START	n/a	n/a	n/a	-999	0	8	[-999, -999, -999]	n/a	0	1	0	n/a	n/a	0.0	0	0	0	FR2	3	R1184M
1059.427	11.769	828880	PROB	11.736	n/a	n/a	-999	0	8	[4, 6, 1]	11	0	1	0	n/a	n/a	0.0	0	0	0	FR2	3	R1184M
1071.196	7.717	834764	PROB	7.686	n/a	n/a	-999	0	8	[8, 1, 7]	16	0	1	0	n/a	n/a	0.0	0	0	0	FR2	3	R1184M
1078.913	19.113	838622	PROB	19.113	n/a	n/a	-999	0	8	[5, 3, 3]	13	0	1	0	n/a	n/a	0.0	0	0	0	FR2	3	R1184M
1098.026	0.008	848178	STOP	n/a	n/a	n/a	-999	0	8	[-999, -999, -999]	n/a	0	1	0	n/a	n/a	0.0	0	0	0	FR2	3	R1184M
1098.034	1.035	848182	DISTRACT_END	n/a	n/a	n/a	-999	0	8	[0, 0, 0]	n/a	0	1	0	n/a	n/a	0.0	0	0	0	FR2	3	R1184M
1099.069	0.438	848699	REC_START	n/a	n/a	n/a	-999	0	8	[0, 0, 0]	n/a	0	1	0	n/a	n/a	0.0	0	0	0	FR2	3	R1184M
1099.507	0.546	848918	REC_WORD	0.438	n/a	SKUNK	1	1	8	[0, 0, 0]	n/a	0	1	0	n/a	n/a	0.0	0	0	0	FR2	3	R1184M
1100.053	0.44	849191	REC_WORD	0.984	n/a	SHIP	2	1	8	[0, 0, 0]	n/a	0	1	0	n/a	n/a	0.0	0	0	0	FR2	3	R1184M
1100.493	0.527	849411	REC_WORD	1.424	n/a	BUSH	4	1	8	[0, 0, 0]	n/a	0	1	0	n/a	n/a	0.0	0	0	0	FR2	3	R1184M
1101.02	0.686	849675	REC_WORD	1.951	n/a	CLOUD	5	1	8	[0, 0, 0]	n/a	0	1	0	n/a	n/a	0.0	0	0	0	FR2	3	R1184M
1101.706	27.372	850018	REC_WORD	2.637	n/a	PURSE	12	1	8	[0, 0, 0]	n/a	0	1	0	n/a	n/a	0.0	0	0	0	FR2	3	R1184M
1129.078	6.131	863703	REC_END	n/a	n/a	n/a	-999	0	8	[0, 0, 0]	n/a	0	1	0	n/a	n/a	0.0	0	0	0	FR2	3	R1184M
1135.209	0.0	866768	TRIAL	n/a	n/a	n/a	-999	0	9	[0, 0, 0]	n/a	0	1	0	n/a	n/a	0.0	0	0	0	FR2	3	R1184M
1135.209	10.0	866768	COUNTDOWN_START	n/a	n/a	n/a	-999	0	9	[0, 0, 0]	n/a	0	1	0	n/a	n/a	0.0	0	0	0	FR2	3	R1184M
1145.637	0.007	871981	COUNTDOWN_END	n/a	n/a	n/a	-999	0	9	[0, 0, 0]	n/a	0	1	0	n/a	n/a	0.0	0	0	0	FR2	3	R1184M
1145.644	1.6	871985	ORIENT	n/a	n/a	n/a	-999	0	9	[0, 0, 0]	n/a	0	1	0	n/a	n/a	0.0	0	0	0	FR2	3	R1184M
1148.111	1.6	873218	WORD	n/a	wordpools/wordpool_EN.txt	JUDGE	1	1	9	[0, 0, 0]	n/a	0	1	0	n/a	n/a	0.0	0	0	0	FR2	3	R1184M
1150.528	1.6	874427	WORD	n/a	wordpools/wordpool_EN.txt	SOCK	2	0	9	[0, 0, 0]	n/a	0	1	0	n/a	n/a	0.0	0	0	0	FR2	3	R1184M
1152.948	4.6	875637	STIM_ON	n/a	n/a	n/a	-999	0	9	[0, 0, 0]	n/a	1	1	4600	RIPS3	RIPS4	750.0	50	230	300	FR2	3	R1184M
1153.162	1.6	875744	WORD	n/a	wordpools/wordpool_EN.txt	FISH	3	1	9	[0, 0, 0]	n/a	1	1	4600	RIPS3	RIPS4	750.0	50	230	300	FR2	3	R1184M
1155.579	1.6	876952	WORD	n/a	wordpools/wordpool_EN.txt	PLANE	4	1	9	[0, 0, 0]	n/a	1	1	4600	RIPS3	RIPS4	750.0	50	230	300	FR2	3	R1184M
1158.012	1.6	878168	WORD	n/a	wordpools/wordpool_EN.txt	SCHOOL	5	0	9	[0, 0, 0]	n/a	0	1	0	n/a	n/a	0.0	0	0	0	FR2	3	R1184M
1160.547	1.6	879436	WORD	n/a	wordpools/wordpool_EN.txt	THUMB	6	0	9	[0, 0, 0]	n/a	0	1	0	n/a	n/a	0.0	0	0	0	FR2	3	R1184M
1162.899	4.6	880612	STIM_ON	n/a	n/a	n/a	-999	0	9	[0, 0, 0]	n/a	1	1	4600	RIPS3	RIPS4	750.0	50	230	300	FR2	3	R1184M
1163.114	1.6	880719	WORD	n/a	wordpools/wordpool_EN.txt	SPOON	7	0	9	[0, 0, 0]	n/a	1	1	4600	RIPS3	RIPS4	750.0	50	230	300	FR2	3	R1184M
1165.598	1.6	881961	WORD	n/a	wordpools/wordpool_EN.txt	BATH	8	0	9	[0, 0, 0]	n/a	1	1	4600	RIPS3	RIPS4	750.0	50	230	300	FR2	3	R1184M
1168.082	1.6	883203	WORD	n/a	wordpools/wordpool_EN.txt	SALT	9	0	9	[0, 0, 0]	n/a	0	1	0	n/a	n/a	0.0	0	0	0	FR2	3	R1184M
1170.699	1.6	884511	WORD	n/a	wordpools/wordpool_EN.txt	STORE	10	1	9	[0, 0, 0]	n/a	0	1	0	n/a	n/a	0.0	0	0	0	FR2	3	R1184M
1172.937	4.6	885630	STIM_ON	n/a	n/a	n/a	-999	0	9	[0, 0, 0]	n/a	1	1	4600	RIPS3	RIPS4	750.0	50	230	300	FR2	3	R1184M
1173.149	1.6	885736	WORD	n/a	wordpools/wordpool_EN.txt	CORN	11	0	9	[0, 0, 0]	n/a	1	1	4600	RIPS3	RIPS4	750.0	50	230	300	FR2	3	R1184M
1175.733	1.6	887028	WORD	n/a	wordpools/wordpool_EN.txt	CUBE	12	0	9	[0, 0, 0]	n/a	1	1	4600	RIPS3	RIPS4	750.0	50	230	300	FR2	3	R1184M
1177.35	0.001	887837	DISTRACT_START	n/a	n/a	n/a	-999	0	9	[0, 0, 0]	n/a	1	1	4600	RIPS3	RIPS4	750.0	50	230	300	FR2	3	R1184M
1177.351	0.016	887837	START	n/a	n/a	n/a	-999	0	9	[-999, -999, -999]	n/a	0	1	0	n/a	n/a	0.0	0	0	0	FR2	3	R1184M
1177.367	20.044	887845	PROB	20.044	n/a	n/a	-999	0	9	[4, 2, 4]	10	0	1	0	n/a	n/a	0.0	0	0	0	FR2	3	R1184M
1197.411	0.01	897866	STOP	n/a	n/a	n/a	-999	0	9	[-999, -999, -999]	n/a	0	1	0	n/a	n/a	0.0	0	0	0	FR2	3	R1184M
1197.421	1.117	897871	DISTRACT_END	n/a	n/a	n/a	-999	0	9	[0, 0, 0]	n/a	0	1	0	n/a	n/a	0.0	0	0	0	FR2	3	R1184M
1198.538	0.863	898430	REC_START	n/a	n/a	n/a	-999	0	9	[0, 0, 0]	n/a	0	1	0	n/a	n/a	0.0	0	0	0	FR2	3	R1184M
1199.401	0.686	898861	REC_WORD	0.863	n/a	JUDGE	1	1	9	[0, 0, 0]	n/a	0	1	0	n/a	n/a	0.0	0	0	0	FR2	3	R1184M
1200.087	0.441	899204	REC_WORD	1.549	n/a	FISH	3	1	9	[0, 0, 0]	n/a	0	1	0	n/a	n/a	0.0	0	0	0	FR2	3	R1184M
1200.528	0.626	899425	REC_WORD	1.99	n/a	STORE	10	1	9	[0, 0, 0]	n/a	0	1	0	n/a	n/a	0.0	0	0	0	FR2	3	R1184M
1201.154	27.397	899738	REC_WORD	2.616	n/a	PLANE	4	1	9	[0, 0, 0]	n/a	0	1	0	n/a	n/a	0.0	0	0	0	FR2	3	R1184M
1228.551	16.378	913435	REC_END	n/a	n/a	n/a	-999	0	9	[0, 0, 0]	n/a	0	1	0	n/a	n/a	0.0	0	0	0	FR2	3	R1184M
1244.929	0.0	921623	TRIAL	n/a	n/a	n/a	-999	0	10	[0, 0, 0]	n/a	0	1	0	n/a	n/a	0.0	0	0	0	FR2	3	R1184M
1244.929	10.0	921623	COUNTDOWN_START	n/a	n/a	n/a	-999	0	10	[0, 0, 0]	n/a	0	1	0	n/a	n/a	0.0	0	0	0	FR2	3	R1184M
1255.357	0.008	926837	COUNTDOWN_END	n/a	n/a	n/a	-999	0	10	[0, 0, 0]	n/a	0	1	0	n/a	n/a	0.0	0	0	0	FR2	3	R1184M
1255.365	1.6	926841	ORIENT	n/a	n/a	n/a	-999	0	10	[0, 0, 0]	n/a	0	1	0	n/a	n/a	0.0	0	0	0	FR2	3	R1184M
1257.881	1.6	928099	WORD	n/a	wordpools/wordpool_EN.txt	BEAR	1	1	10	[0, 0, 0]	n/a	0	1	0	n/a	n/a	0.0	0	0	0	FR2	3	R1184M
1260.483	1.6	929400	WORD	n/a	wordpools/wordpool_EN.txt	SHOE	2	0	10	[0, 0, 0]	n/a	0	1	0	n/a	n/a	0.0	0	0	0	FR2	3	R1184M
1262.747	4.6	930532	STIM_ON	n/a	n/a	n/a	-999	0	10	[0, 0, 0]	n/a	1	1	4600	RIPS3	RIPS4	750.0	50	230	300	FR2	3	R1184M
1262.966	1.6	930641	WORD	n/a	wordpools/wordpool_EN.txt	SMOKE	3	0	10	[0, 0, 0]	n/a	1	1	4600	RIPS3	RIPS4	750.0	50	230	300	FR2	3	R1184M
1265.5	1.6	931908	WORD	n/a	wordpools/wordpool_EN.txt	HORSE	4	0	10	[0, 0, 0]	n/a	1	1	4600	RIPS3	RIPS4	750.0	50	230	300	FR2	3	R1184M
1267.916	1.6	933116	WORD	n/a	wordpools/wordpool_EN.txt	STEM	5	1	10	[0, 0, 0]	n/a	0	1	0	n/a	n/a	0.0	0	0	0	FR2	3	R1184M
1270.301	1.6	934308	WORD	n/a	wordpools/wordpool_EN.txt	SAIL	6	0	10	[0, 0, 0]	n/a	0	1	0	n/a	n/a	0.0	0	0	0	FR2	3	R1184M
1272.692	4.6	935504	STIM_ON	n/a	n/a	n/a	-999	0	10	[0, 0, 0]	n/a	1	1	4600	RIPS3	RIPS4	750.0	50	230	300	FR2	3	R1184M
1272.901	1.6	935608	WORD	n/a	wordpools/wordpool_EN.txt	TEETH	7	0	10	[0, 0, 0]	n/a	1	1	4600	RIPS3	RIPS4	750.0	50	230	300	FR2	3	R1184M
1275.502	1.6	936909	WORD	n/a	wordpools/wordpool_EN.txt	BLUSH	8	0	10	[0, 0, 0]	n/a	1	1	4600	RIPS3	RIPS4	750.0	50	230	300	FR2	3	R1184M
1277.952	1.6	938134	WORD	n/a	wordpools/wordpool_EN.txt	PET	9	0	10	[0, 0, 0]	n/a	0	1	0	n/a	n/a	0.0	0	0	0	FR2	3	R1184M
1280.32	1.6	939317	WORD	n/a	wordpools/wordpool_EN.txt	HOUSE	10	1	10	[0, 0, 0]	n/a	0	1	0	n/a	n/a	0.0	0	0	0	FR2	3	R1184M
1282.511	4.6	940413	STIM_ON	n/a	n/a	n/a	-999	0	10	[0, 0, 0]	n/a	1	1	4600	RIPS3	RIPS4	750.0	50	230	300	FR2	3	R1184M
1282.72	1.6	940517	WORD	n/a	wordpools/wordpool_EN.txt	PRINCE	11	1	10	[0, 0, 0]	n/a	1	1	4600	RIPS3	RIPS4	750.0	50	230	300	FR2	3	R1184M
1285.154	1.6	941734	WORD	n/a	wordpools/wordpool_EN.txt	BOY	12	1	10	[0, 0, 0]	n/a	1	1	4600	RIPS3	RIPS4	750.0	50	230	300	FR2	3	R1184M
1286.771	0.001	942543	DISTRACT_START	n/a	n/a	n/a	-999	0	10	[0, 0, 0]	n/a	1	1	4600	RIPS3	RIPS4	750.0	50	230	300	FR2	3	R1184M
1286.772	0.016	942543	START	n/a	n/a	n/a	-999	0	10	[-999, -999, -999]	n/a	0	1	0	n/a	n/a	0.0	0	0	0	FR2	3	R1184M
1286.788	19.999	942551	PROB	19.999	n/a	n/a	-999	0	10	[4, 3, 6]	11	0	1	0	n/a	n/a	0.0	0	0	0	FR2	3	R1184M
1306.787	0.005	952550	STOP	n/a	n/a	n/a	-999	0	10	[-999, -999, -999]	n/a	0	1	0	n/a	n/a	0.0	0	0	0	FR2	3	R1184M
1306.792	1.116	952552	DISTRACT_END	n/a	n/a	n/a	-999	0	10	[0, 0, 0]	n/a	0	1	0	n/a	n/a	0.0	0	0	0	FR2	3	R1184M
1307.908	1.478	953110	REC_START	n/a	n/a	n/a	-999	0	10	[0, 0, 0]	n/a	0	1	0	n/a	n/a	0.0	0	0	0	FR2	3	R1184M
1309.386	0.619	953849	REC_WORD	1.478	n/a	BEAR	1	1	10	[0, 0, 0]	n/a	0	1	0	n/a	n/a	0.0	0	0	0	FR2	3	R1184M
1310.005	0.553	954159	REC_WORD	2.097	n/a	HOUSE	10	1	10	[0, 0, 0]	n/a	0	1	0	n/a	n/a	0.0	0	0	0	FR2	3	R1184M
1310.558	0.505	954435	REC_WORD	2.65	n/a	STEM	5	1	10	[0, 0, 0]	n/a	0	1	0	n/a	n/a	0.0	0	0	0	FR2	3	R1184M
1311.063	0.608	954688	REC_WORD	3.155	n/a	PRINCE	11	1	10	[0, 0, 0]	n/a	0	1	0	n/a	n/a	0.0	0	0	0	FR2	3	R1184M
1311.671	26.247	954992	REC_WORD	3.763	n/a	BOY	12	1	10	[0, 0, 0]	n/a	0	1	0	n/a	n/a	0.0	0	0	0	FR2	3	R1184M
1337.918	9.482	968114	REC_END	n/a	n/a	n/a	-999	0	10	[0, 0, 0]	n/a	0	1	0	n/a	n/a	0.0	0	0	0	FR2	3	R1184M
1347.4	0.0	972855	TRIAL	n/a	n/a	n/a	-999	0	11	[0, 0, 0]	n/a	0	1	0	n/a	n/a	0.0	0	0	0	FR2	3	R1184M
1347.4	10.0	972855	COUNTDOWN_START	n/a	n/a	n/a	-999	0	11	[0, 0, 0]	n/a	0	1	0	n/a	n/a	0.0	0	0	0	FR2	3	R1184M
1357.828	0.007	978068	COUNTDOWN_END	n/a	n/a	n/a	-999	0	11	[0, 0, 0]	n/a	0	1	0	n/a	n/a	0.0	0	0	0	FR2	3	R1184M
1357.835	1.6	978072	ORIENT	n/a	n/a	n/a	-999	0	11	[0, 0, 0]	n/a	0	1	0	n/a	n/a	0.0	0	0	0	FR2	3	R1184M
1360.302	1.6	979305	WORD	n/a	wordpools/wordpool_EN.txt	BEACH	1	0	11	[0, 0, 0]	n/a	0	1	0	n/a	n/a	0.0	0	0	0	FR2	3	R1184M
1362.852	1.6	980580	WORD	n/a	wordpools/wordpool_EN.txt	ROOF	2	1	11	[0, 0, 0]	n/a	0	1	0	n/a	n/a	0.0	0	0	0	FR2	3	R1184M
1365.267	4.6	981788	STIM_ON	n/a	n/a	n/a	-999	0	11	[0, 0, 0]	n/a	1	1	4600	RIPS3	RIPS4	750.0	50	230	300	FR2	3	R1184M
1365.469	1.6	981889	WORD	n/a	wordpools/wordpool_EN.txt	VEST	3	0	11	[0, 0, 0]	n/a	1	1	4600	RIPS3	RIPS4	750.0	50	230	300	FR2	3	R1184M
1367.969	1.6	983138	WORD	n/a	wordpools/wordpool_EN.txt	SPARK	4	0	11	[0, 0, 0]	n/a	1	1	4600	RIPS3	RIPS4	750.0	50	230	300	FR2	3	R1184M
1370.354	1.6	984331	WORD	n/a	wordpools/wordpool_EN.txt	BOX	5	0	11	[0, 0, 0]	n/a	0	1	0	n/a	n/a	0.0	0	0	0	FR2	3	R1184M
1372.887	1.6	985597	WORD	n/a	wordpools/wordpool_EN.txt	PARK	6	0	11	[0, 0, 0]	n/a	0	1	0	n/a	n/a	0.0	0	0	0	FR2	3	R1184M
1375.226	4.6	986767	STIM_ON	n/a	n/a	n/a	-999	0	11	[0, 0, 0]	n/a	1	1	4600	RIPS3	RIPS4	750.0	50	230	300	FR2	3	R1184M
1375.438	1.6	986873	WORD	n/a	wordpools/wordpool_EN.txt	GEESE	7	0	11	[0, 0, 0]	n/a	1	1	4600	RIPS3	RIPS4	750.0	50	230	300	FR2	3	R1184M
1377.938	1.6	988123	WORD	n/a	wordpools/wordpool_EN.txt	PEA	8	1	11	[0, 0, 0]	n/a	1	1	4600	RIPS3	RIPS4	750.0	50	230	300	FR2	3	R1184M
1380.389	1.6	989348	WORD	n/a	wordpools/wordpool_EN.txt	MAT	9	1	11	[0, 0, 0]	n/a	0	1	0	n/a	n/a	0.0	0	0	0	FR2	3	R1184M
1382.955	1.6	990631	WORD	n/a	wordpools/wordpool_EN.txt	SKI	10	1	11	[0, 0, 0]	n/a	0	1	0	n/a	n/a	0.0	0	0	0	FR2	3	R1184M
1385.117	4.6	991712	STIM_ON	n/a	n/a	n/a	-999	0	11	[0, 0, 0]	n/a	1	1	4600	RIPS3	RIPS4	750.0	50	230	300	FR2	3	R1184M
1385.323	1.6	991815	WORD	n/a	wordpools/wordpool_EN.txt	STONE	11	0	11	[0, 0, 0]	n/a	1	1	4600	RIPS3	RIPS4	750.0	50	230	300	FR2	3	R1184M
1387.89	1.6	993098	WORD	n/a	wordpools/wordpool_EN.txt	MOLE	12	0	11	[0, 0, 0]	n/a	1	1	4600	RIPS3	RIPS4	750.0	50	230	300	FR2	3	R1184M
1389.491	0.001	993899	DISTRACT_START	n/a	n/a	n/a	-999	0	11	[0, 0, 0]	n/a	1	1	4600	RIPS3	RIPS4	750.0	50	230	300	FR2	3	R1184M
1389.492	0.016	993899	START	n/a	n/a	n/a	-999	0	11	[-999, -999, -999]	n/a	0	1	0	n/a	n/a	0.0	0	0	0	FR2	3	R1184M
1389.508	64.263	993907	PROB	64.263	n/a	n/a	-999	0	11	[4, 9, 4]	18	0	1	0	n/a	n/a	0.0	0	0	0	FR2	3	R1184M
1453.771	0.016	1026036	STOP	n/a	n/a	n/a	-999	0	11	[-999, -999, -999]	n/a	0	1	0	n/a	n/a	0.0	0	0	0	FR2	3	R1184M
1453.787	1.116	1026044	DISTRACT_END	n/a	n/a	n/a	-999	0	11	[0, 0, 0]	n/a	0	1	0	n/a	n/a	0.0	0	0	0	FR2	3	R1184M
1454.903	0.633	1026602	REC_START	n/a	n/a	n/a	-999	0	11	[0, 0, 0]	n/a	0	1	0	n/a	n/a	0.0	0	0	0	FR2	3	R1184M
1455.536	0.311	1026918	REC_WORD	0.633	n/a	PEA	8	1	11	[0, 0, 0]	n/a	0	1	0	n/a	n/a	0.0	0	0	0	FR2	3	R1184M
1455.847	0.766	1027074	REC_WORD	0.944	n/a	ROOF	2	1	11	[0, 0, 0]	n/a	0	1	0	n/a	n/a	0.0	0	0	0	FR2	3	R1184M
1456.613	0.412	1027457	REC_WORD	1.71	n/a	MAT	9	1	11	[0, 0, 0]	n/a	0	1	0	n/a	n/a	0.0	0	0	0	FR2	3	R1184M
1457.025	4.149	1027663	REC_WORD	2.122	n/a	SKI	10	1	11	[0, 0, 0]	n/a	0	1	0	n/a	n/a	0.0	0	0	0	FR2	3	R1184M
1461.174	23.739	1029737	REC_WORD	6.271	n/a	PEA	8	1	11	[0, 0, 0]	n/a	0	1	0	n/a	n/a	0.0	0	0	0	FR2	3	R1184M
1484.913	10.632	1041606	REC_END	n/a	n/a	n/a	-999	0	11	[0, 0, 0]	n/a	0	1	0	n/a	n/a	0.0	0	0	0	FR2	3	R1184M
1495.545	0.0	1046921	TRIAL	n/a	n/a	n/a	-999	0	12	[0, 0, 0]	n/a	0	1	0	n/a	n/a	0.0	0	0	0	FR2	3	R1184M
1495.545	10.0	1046921	COUNTDOWN_START	n/a	n/a	n/a	-999	0	12	[0, 0, 0]	n/a	0	1	0	n/a	n/a	0.0	0	0	0	FR2	3	R1184M
1505.973	0.006	1052135	COUNTDOWN_END	n/a	n/a	n/a	-999	0	12	[0, 0, 0]	n/a	0	1	0	n/a	n/a	0.0	0	0	0	FR2	3	R1184M
1505.979	1.6	1052138	ORIENT	n/a	n/a	n/a	-999	0	12	[0, 0, 0]	n/a	0	1	0	n/a	n/a	0.0	0	0	0	FR2	3	R1184M
1508.2	4.6	1053248	STIM_ON	n/a	n/a	n/a	-999	0	12	[0, 0, 0]	n/a	1	1	4600	RIPS3	RIPS4	750.0	50	230	300	FR2	3	R1184M
1508.414	1.6	1053355	WORD	n/a	wordpools/wordpool_EN.txt	TENT	1	1	12	[0, 0, 0]	n/a	1	1	4600	RIPS3	RIPS4	750.0	50	230	300	FR2	3	R1184M
1510.847	1.6	1054572	WORD	n/a	wordpools/wordpool_EN.txt	SMILE	2	0	12	[0, 0, 0]	n/a	1	1	4600	RIPS3	RIPS4	750.0	50	230	300	FR2	3	R1184M
1513.298	1.6	1055797	WORD	n/a	wordpools/wordpool_EN.txt	HEN	3	1	12	[0, 0, 0]	n/a	0	1	0	n/a	n/a	0.0	0	0	0	FR2	3	R1184M
1515.749	1.6	1057022	WORD	n/a	wordpools/wordpool_EN.txt	LEG	4	1	12	[0, 0, 0]	n/a	0	1	0	n/a	n/a	0.0	0	0	0	FR2	3	R1184M
1517.926	4.6	1058111	STIM_ON	n/a	n/a	n/a	-999	0	12	[0, 0, 0]	n/a	1	1	4600	RIPS3	RIPS4	750.0	50	230	300	FR2	3	R1184M
1518.132	1.6	1058214	WORD	n/a	wordpools/wordpool_EN.txt	FACE	5	0	12	[0, 0, 0]	n/a	1	1	4600	RIPS3	RIPS4	750.0	50	230	300	FR2	3	R1184M
1520.683	1.6	1059489	WORD	n/a	wordpools/wordpool_EN.txt	JET	6	0	12	[0, 0, 0]	n/a	1	1	4600	RIPS3	RIPS4	750.0	50	230	300	FR2	3	R1184M
1523.267	1.6	1060781	WORD	n/a	wordpools/wordpool_EN.txt	BRICK	7	0	12	[0, 0, 0]	n/a	0	1	0	n/a	n/a	0.0	0	0	0	FR2	3	R1184M
1525.834	1.6	1062065	WORD	n/a	wordpools/wordpool_EN.txt	GRASS	8	0	12	[0, 0, 0]	n/a	0	1	0	n/a	n/a	0.0	0	0	0	FR2	3	R1184M
1528.046	4.6	1063170	STIM_ON	n/a	n/a	n/a	-999	0	12	[0, 0, 0]	n/a	1	1	4600	RIPS3	RIPS4	750.0	50	230	300	FR2	3	R1184M
1528.251	1.6	1063273	WORD	n/a	wordpools/wordpool_EN.txt	ARM	9	1	12	[0, 0, 0]	n/a	1	1	4600	RIPS3	RIPS4	750.0	50	230	300	FR2	3	R1184M
1530.702	1.6	1064498	WORD	n/a	wordpools/wordpool_EN.txt	STOOL	10	0	12	[0, 0, 0]	n/a	1	1	4600	RIPS3	RIPS4	750.0	50	230	300	FR2	3	R1184M
1533.302	1.6	1065798	WORD	n/a	wordpools/wordpool_EN.txt	FLUTE	11	0	12	[0, 0, 0]	n/a	0	1	0	n/a	n/a	0.0	0	0	0	FR2	3	R1184M
1535.752	1.6	1067023	WORD	n/a	wordpools/wordpool_EN.txt	FILM	12	0	12	[0, 0, 0]	n/a	0	1	0	n/a	n/a	0.0	0	0	0	FR2	3	R1184M
1537.369	0.001	1067832	DISTRACT_START	n/a	n/a	n/a	-999	0	12	[0, 0, 0]	n/a	0	1	0	n/a	n/a	0.0	0	0	0	FR2	3	R1184M
1537.37	0.016	1067832	START	n/a	n/a	n/a	-999	0	12	[-999, -999, -999]	n/a	0	1	0	n/a	n/a	0.0	0	0	0	FR2	3	R1184M
1537.386	30.009	1067840	PROB	30.009	n/a	n/a	-999	0	12	[5, 2, 3]	10	0	1	0	n/a	n/a	0.0	0	0	0	FR2	3	R1184M
1567.395	0.014	1082843	STOP	n/a	n/a	n/a	-999	0	12	[-999, -999, -999]	n/a	0	1	0	n/a	n/a	0.0	0	0	0	FR2	3	R1184M
1567.409	1.184	1082850	DISTRACT_END	n/a	n/a	n/a	-999	0	12	[0, 0, 0]	n/a	0	1	0	n/a	n/a	0.0	0	0	0	FR2	3	R1184M
1568.593	0.931	1083442	REC_START	n/a	n/a	n/a	-999	0	12	[0, 0, 0]	n/a	0	1	0	n/a	n/a	0.0	0	0	0	FR2	3	R1184M
1569.524	0.437	1083908	REC_WORD	0.931	n/a	ARM	9	1	12	[0, 0, 0]	n/a	0	1	0	n/a	n/a	0.0	0	0	0	FR2	3	R1184M
1569.961	0.51	1084126	REC_WORD	1.368	n/a	LEG	4	1	12	[0, 0, 0]	n/a	0	1	0	n/a	n/a	0.0	0	0	0	FR2	3	R1184M
1570.471	0.637	1084381	REC_WORD	1.878	n/a	TENT	1	1	12	[0, 0, 0]	n/a	0	1	0	n/a	n/a	0.0	0	0	0	FR2	3	R1184M
1571.108	27.494	1084700	REC_WORD	2.515	n/a	HEN	3	1	12	[0, 0, 0]	n/a	0	1	0	n/a	n/a	0.0	0	0	0	FR2	3	R1184M
1598.602	9.948	1098446	REC_END	n/a	n/a	n/a	-999	0	12	[0, 0, 0]	n/a	0	1	0	n/a	n/a	0.0	0	0	0	FR2	3	R1184M
1608.55	0.0	1103419	TRIAL	n/a	n/a	n/a	-999	0	13	[0, 0, 0]	n/a	0	1	0	n/a	n/a	0.0	0	0	0	FR2	3	R1184M
1608.55	10.0	1103419	COUNTDOWN_START	n/a	n/a	n/a	-999	0	13	[0, 0, 0]	n/a	0	1	0	n/a	n/a	0.0	0	0	0	FR2	3	R1184M
1618.978	0.006	1108633	COUNTDOWN_END	n/a	n/a	n/a	-999	0	13	[0, 0, 0]	n/a	0	1	0	n/a	n/a	0.0	0	0	0	FR2	3	R1184M
1618.984	1.6	1108636	ORIENT	n/a	n/a	n/a	-999	0	13	[0, 0, 0]	n/a	0	1	0	n/a	n/a	0.0	0	0	0	FR2	3	R1184M
1621.28	4.6	1109784	STIM_ON	n/a	n/a	n/a	-999	0	13	[0, 0, 0]	n/a	1	1	4600	RIPS3	RIPS4	750.0	50	230	300	FR2	3	R1184M
1621.486	1.6	1109887	WORD	n/a	wordpools/wordpool_EN.txt	PEN	1	1	13	[0, 0, 0]	n/a	1	1	4600	RIPS3	RIPS4	750.0	50	230	300	FR2	3	R1184M
1624.103	1.6	1111195	WORD	n/a	wordpools/wordpool_EN.txt	SHEEP	2	1	13	[0, 0, 0]	n/a	1	1	4600	RIPS3	RIPS4	750.0	50	230	300	FR2	3	R1184M
1626.653	1.6	1112470	WORD	n/a	wordpools/wordpool_EN.txt	BOOK	3	1	13	[0, 0, 0]	n/a	0	1	0	n/a	n/a	0.0	0	0	0	FR2	3	R1184M
1629.07	1.6	1113678	WORD	n/a	wordpools/wordpool_EN.txt	SKY	4	1	13	[0, 0, 0]	n/a	0	1	0	n/a	n/a	0.0	0	0	0	FR2	3	R1184M
1631.401	4.6	1114844	STIM_ON	n/a	n/a	n/a	-999	0	13	[0, 0, 0]	n/a	1	1	4600	RIPS3	RIPS4	750.0	50	230	300	FR2	3	R1184M
1631.604	1.6	1114945	WORD	n/a	wordpools/wordpool_EN.txt	FLAG	5	0	13	[0, 0, 0]	n/a	1	1	4600	RIPS3	RIPS4	750.0	50	230	300	FR2	3	R1184M
1634.221	1.6	1116254	WORD	n/a	wordpools/wordpool_EN.txt	STAIR	6	0	13	[0, 0, 0]	n/a	1	1	4600	RIPS3	RIPS4	750.0	50	230	300	FR2	3	R1184M
1636.739	1.6	1117513	WORD	n/a	wordpools/wordpool_EN.txt	FUDGE	7	1	13	[0, 0, 0]	n/a	0	1	0	n/a	n/a	0.0	0	0	0	FR2	3	R1184M
1639.289	1.6	1118787	WORD	n/a	wordpools/wordpool_EN.txt	HAND	8	0	13	[0, 0, 0]	n/a	0	1	0	n/a	n/a	0.0	0	0	0	FR2	3	R1184M
1641.62	4.6	1119953	STIM_ON	n/a	n/a	n/a	-999	0	13	[0, 0, 0]	n/a	1	1	4600	RIPS3	RIPS4	750.0	50	230	300	FR2	3	R1184M
1641.839	1.6	1120062	WORD	n/a	wordpools/wordpool_EN.txt	CLAY	9	0	13	[0, 0, 0]	n/a	1	1	4600	RIPS3	RIPS4	750.0	50	230	300	FR2	3	R1184M
1644.44	1.6	1121363	WORD	n/a	wordpools/wordpool_EN.txt	DOLL	10	0	13	[0, 0, 0]	n/a	1	1	4600	RIPS3	RIPS4	750.0	50	230	300	FR2	3	R1184M
1646.956	1.6	1122621	WORD	n/a	wordpools/wordpool_EN.txt	BROOM	11	0	13	[0, 0, 0]	n/a	0	1	0	n/a	n/a	0.0	0	0	0	FR2	3	R1184M
1649.374	1.6	1123829	WORD	n/a	wordpools/wordpool_EN.txt	FORT	12	0	13	[0, 0, 0]	n/a	0	1	0	n/a	n/a	0.0	0	0	0	FR2	3	R1184M
1650.99	0.001	1124637	DISTRACT_START	n/a	n/a	n/a	-999	0	13	[0, 0, 0]	n/a	0	1	0	n/a	n/a	0.0	0	0	0	FR2	3	R1184M
1650.991	0.016	1124638	START	n/a	n/a	n/a	-999	0	13	[-999, -999, -999]	n/a	0	1	0	n/a	n/a	0.0	0	0	0	FR2	3	R1184M
1651.007	27.995	1124646	PROB	27.995	n/a	n/a	-999	0	13	[1, 8, 8]	17	0	1	0	n/a	n/a	0.0	0	0	0	FR2	3	R1184M
1679.002	0.01	1138642	STOP	n/a	n/a	n/a	-999	0	13	[-999, -999, -999]	n/a	0	1	0	n/a	n/a	0.0	0	0	0	FR2	3	R1184M
1679.012	1.177	1138647	DISTRACT_END	n/a	n/a	n/a	-999	0	13	[0, 0, 0]	n/a	0	1	0	n/a	n/a	0.0	0	0	0	FR2	3	R1184M
1680.189	0.699	1139236	REC_START	n/a	n/a	n/a	-999	0	13	[0, 0, 0]	n/a	0	1	0	n/a	n/a	0.0	0	0	0	FR2	3	R1184M
1680.888	0.334	1139585	REC_WORD	0.699	n/a	PEN	1	1	13	[0, 0, 0]	n/a	0	1	0	n/a	n/a	0.0	0	0	0	FR2	3	R1184M
1681.222	0.548	1139752	REC_WORD	1.033	n/a	SHEEP	2	1	13	[0, 0, 0]	n/a	0	1	0	n/a	n/a	0.0	0	0	0	FR2	3	R1184M
1681.77	0.951	1140026	REC_WORD	1.581	n/a	SKY	4	1	13	[0, 0, 0]	n/a	0	1	0	n/a	n/a	0.0	0	0	0	FR2	3	R1184M
1682.721	2.36	1140502	REC_WORD	2.532	n/a	PEN	1	1	13	[0, 0, 0]	n/a	0	1	0	n/a	n/a	0.0	0	0	0	FR2	3	R1184M
1685.081	24.911	1141682	REC_WORD	4.892	n/a	FUDGE	7	1	13	[0, 0, 0]	n/a	0	1	0	n/a	n/a	0.0	0	0	0	FR2	3	R1184M
1709.992	0.198	1154136	REC_WORD	29.803	n/a	BOOK	3	1	13	[0, 0, 0]	n/a	0	1	0	n/a	n/a	0.0	0	0	0	FR2	3	R1184M
1710.19	61.341	1154235	REC_END	n/a	n/a	n/a	-999	0	13	[0, 0, 0]	n/a	0	1	0	n/a	n/a	0.0	0	0	0	FR2	3	R1184M
1771.531	0.0	1184903	TRIAL	n/a	n/a	n/a	-999	0	14	[0, 0, 0]	n/a	0	1	0	n/a	n/a	0.0	0	0	0	FR2	3	R1184M
1771.531	10.0	1184903	COUNTDOWN_START	n/a	n/a	n/a	-999	0	14	[0, 0, 0]	n/a	0	1	0	n/a	n/a	0.0	0	0	0	FR2	3	R1184M
1781.959	0.007	1190117	COUNTDOWN_END	n/a	n/a	n/a	-999	0	14	[0, 0, 0]	n/a	0	1	0	n/a	n/a	0.0	0	0	0	FR2	3	R1184M
1781.966	1.6	1190120	ORIENT	n/a	n/a	n/a	-999	0	14	[0, 0, 0]	n/a	0	1	0	n/a	n/a	0.0	0	0	0	FR2	3	R1184M
1784.239	4.6	1191257	STIM_ON	n/a	n/a	n/a	-999	0	14	[0, 0, 0]	n/a	1	1	4600	RIPS3	RIPS4	750.0	50	230	300	FR2	3	R1184M
1784.45	1.6	1191362	WORD	n/a	wordpools/wordpool_EN.txt	RICE	1	1	14	[0, 0, 0]	n/a	1	1	4600	RIPS3	RIPS4	750.0	50	230	300	FR2	3	R1184M
1786.9	1.6	1192587	WORD	n/a	wordpools/wordpool_EN.txt	RAKE	2	1	14	[0, 0, 0]	n/a	1	1	4600	RIPS3	RIPS4	750.0	50	230	300	FR2	3	R1184M
1789.335	1.6	1193804	WORD	n/a	wordpools/wordpool_EN.txt	HOLE	3	0	14	[0, 0, 0]	n/a	0	1	0	n/a	n/a	0.0	0	0	0	FR2	3	R1184M
1791.785	1.6	1195029	WORD	n/a	wordpools/wordpool_EN.txt	RUG	4	0	14	[0, 0, 0]	n/a	0	1	0	n/a	n/a	0.0	0	0	0	FR2	3	R1184M
1794.026	4.6	1196150	STIM_ON	n/a	n/a	n/a	-999	0	14	[0, 0, 0]	n/a	1	1	4600	RIPS3	RIPS4	750.0	50	230	300	FR2	3	R1184M
1794.236	1.6	1196255	WORD	n/a	wordpools/wordpool_EN.txt	MOUTH	5	0	14	[0, 0, 0]	n/a	1	1	4600	RIPS3	RIPS4	750.0	50	230	300	FR2	3	R1184M
1796.836	1.6	1197554	WORD	n/a	wordpools/wordpool_EN.txt	SUN	6	0	14	[0, 0, 0]	n/a	1	1	4600	RIPS3	RIPS4	750.0	50	230	300	FR2	3	R1184M
1799.22	1.6	1198746	WORD	n/a	wordpools/wordpool_EN.txt	GLASS	7	1	14	[0, 0, 0]	n/a	0	1	0	n/a	n/a	0.0	0	0	0	FR2	3	R1184M
1801.637	1.6	1199955	WORD	n/a	wordpools/wordpool_EN.txt	SOAP	8	0	14	[0, 0, 0]	n/a	0	1	0	n/a	n/a	0.0	0	0	0	FR2	3	R1184M
1803.881	4.6	1201077	STIM_ON	n/a	n/a	n/a	-999	0	14	[0, 0, 0]	n/a	1	1	4600	RIPS3	RIPS4	750.0	50	230	300	FR2	3	R1184M
1804.088	1.6	1201180	WORD	n/a	wordpools/wordpool_EN.txt	EGG	9	0	14	[0, 0, 0]	n/a	1	1	4600	RIPS3	RIPS4	750.0	50	230	300	FR2	3	R1184M
1806.521	1.6	1202397	WORD	n/a	wordpools/wordpool_EN.txt	BRANCH	10	0	14	[0, 0, 0]	n/a	1	1	4600	RIPS3	RIPS4	750.0	50	230	300	FR2	3	R1184M
1809.021	1.6	1203647	WORD	n/a	wordpools/wordpool_EN.txt	MOOSE	11	1	14	[0, 0, 0]	n/a	0	1	0	n/a	n/a	0.0	0	0	0	FR2	3	R1184M
1811.389	1.6	1204830	WORD	n/a	wordpools/wordpool_EN.txt	WORM	12	0	14	[0, 0, 0]	n/a	0	1	0	n/a	n/a	0.0	0	0	0	FR2	3	R1184M
1813.005	0.001	1205638	DISTRACT_START	n/a	n/a	n/a	-999	0	14	[0, 0, 0]	n/a	0	1	0	n/a	n/a	0.0	0	0	0	FR2	3	R1184M
1813.006	0.016	1205639	START	n/a	n/a	n/a	-999	0	14	[-999, -999, -999]	n/a	0	1	0	n/a	n/a	0.0	0	0	0	FR2	3	R1184M
1813.022	46.109	1205647	PROB	46.109	n/a	n/a	-999	0	14	[7, 4, 8]	20	0	1	0	n/a	n/a	0.0	0	0	0	FR2	3	R1184M
1859.131	0.017	1228699	STOP	n/a	n/a	n/a	-999	0	14	[-999, -999, -999]	n/a	0	1	0	n/a	n/a	0.0	0	0	0	FR2	3	R1184M
1859.148	1.118	1228708	DISTRACT_END	n/a	n/a	n/a	-999	0	14	[0, 0, 0]	n/a	0	1	0	n/a	n/a	0.0	0	0	0	FR2	3	R1184M
1860.266	0.992	1229267	REC_START	n/a	n/a	n/a	-999	0	14	[0, 0, 0]	n/a	0	1	0	n/a	n/a	0.0	0	0	0	FR2	3	R1184M
1861.258	0.435	1229763	REC_WORD	0.992	n/a	RICE	1	1	14	[0, 0, 0]	n/a	0	1	0	n/a	n/a	0.0	0	0	0	FR2	3	R1184M
1861.693	1.06	1229980	REC_WORD	1.427	n/a	RAKE	2	1	14	[0, 0, 0]	n/a	0	1	0	n/a	n/a	0.0	0	0	0	FR2	3	R1184M
1862.753	0.685	1230510	REC_WORD	2.487	n/a	MOOSE	11	1	14	[0, 0, 0]	n/a	0	1	0	n/a	n/a	0.0	0	0	0	FR2	3	R1184M
1863.438	26.838	1230853	REC_WORD	3.172	n/a	GLASS	7	1	14	[0, 0, 0]	n/a	0	1	0	n/a	n/a	0.0	0	0	0	FR2	3	R1184M
1890.276	7.029	1244271	REC_END	n/a	n/a	n/a	-999	0	14	[0, 0, 0]	n/a	0	1	0	n/a	n/a	0.0	0	0	0	FR2	3	R1184M
1897.305	10.0	1247785	COUNTDOWN_START	n/a	n/a	n/a	-999	0	15	[0, 0, 0]	n/a	0	0	0	n/a	n/a	0.0	0	0	0	FR2	3	R1184M
1897.306	10.427	1247785	TRIAL	n/a	n/a	n/a	-999	0	15	[0, 0, 0]	n/a	0	0	0	n/a	n/a	0.0	0	0	0	FR2	3	R1184M
1907.733	0.008	1252998	COUNTDOWN_END	n/a	n/a	n/a	-999	0	15	[0, 0, 0]	n/a	0	0	0	n/a	n/a	0.0	0	0	0	FR2	3	R1184M
1907.741	1.6	1253002	ORIENT	n/a	n/a	n/a	-999	0	15	[0, 0, 0]	n/a	0	0	0	n/a	n/a	0.0	0	0	0	FR2	3	R1184M
1910.191	1.6	1254227	WORD	n/a	wordpools/wordpool_EN.txt	ROPE	1	1	15	[0, 0, 0]	n/a	0	0	0	n/a	n/a	0.0	0	0	0	FR2	3	R1184M
1912.741	1.6	1255502	WORD	n/a	wordpools/wordpool_EN.txt	CORD	2	0	15	[0, 0, 0]	n/a	0	0	0	n/a	n/a	0.0	0	0	0	FR2	3	R1184M
1915.159	1.6	1256711	WORD	n/a	wordpools/wordpool_EN.txt	BEAK	3	0	15	[0, 0, 0]	n/a	0	0	0	n/a	n/a	0.0	0	0	0	FR2	3	R1184M
1917.659	1.6	1257961	WORD	n/a	wordpools/wordpool_EN.txt	CAT	4	0	15	[0, 0, 0]	n/a	0	0	0	n/a	n/a	0.0	0	0	0	FR2	3	R1184M
1920.16	1.6	1259211	WORD	n/a	wordpools/wordpool_EN.txt	BOWL	5	1	15	[0, 0, 0]	n/a	0	0	0	n/a	n/a	0.0	0	0	0	FR2	3	R1184M
1922.544	1.6	1260403	WORD	n/a	wordpools/wordpool_EN.txt	RAIN	6	0	15	[0, 0, 0]	n/a	0	0	0	n/a	n/a	0.0	0	0	0	FR2	3	R1184M
1924.96	1.6	1261611	WORD	n/a	wordpools/wordpool_EN.txt	MUD	7	0	15	[0, 0, 0]	n/a	0	0	0	n/a	n/a	0.0	0	0	0	FR2	3	R1184M
1927.578	1.6	1262920	WORD	n/a	wordpools/wordpool_EN.txt	PIN	8	1	15	[0, 0, 0]	n/a	0	0	0	n/a	n/a	0.0	0	0	0	FR2	3	R1184M
1930.062	1.6	1264162	WORD	n/a	wordpools/wordpool_EN.txt	SPEAR	9	1	15	[0, 0, 0]	n/a	0	0	0	n/a	n/a	0.0	0	0	0	FR2	3	R1184M
1932.662	1.6	1265462	WORD	n/a	wordpools/wordpool_EN.txt	PHONE	10	0	15	[0, 0, 0]	n/a	0	0	0	n/a	n/a	0.0	0	0	0	FR2	3	R1184M
1935.229	1.6	1266745	WORD	n/a	wordpools/wordpool_EN.txt	DRUM	11	0	15	[0, 0, 0]	n/a	0	0	0	n/a	n/a	0.0	0	0	0	FR2	3	R1184M
1937.63	1.6	1267946	WORD	n/a	wordpools/wordpool_EN.txt	CHIN	12	0	15	[0, 0, 0]	n/a	0	0	0	n/a	n/a	0.0	0	0	0	FR2	3	R1184M
1939.247	0.001	1268754	DISTRACT_START	n/a	n/a	n/a	-999	0	15	[0, 0, 0]	n/a	0	0	0	n/a	n/a	0.0	0	0	0	FR2	3	R1184M
1939.248	0.016	1268755	START	n/a	n/a	n/a	-999	0	15	[-999, -999, -999]	n/a	0	0	0	n/a	n/a	0.0	0	0	0	FR2	3	R1184M
1939.264	28.003	1268763	PROB	28.003	n/a	n/a	-999	0	15	[5, 1, 8]	14	0	0	0	n/a	n/a	0.0	0	0	0	FR2	3	R1184M
1967.267	0.019	1282763	STOP	n/a	n/a	n/a	-999	0	15	[-999, -999, -999]	n/a	0	0	0	n/a	n/a	0.0	0	0	0	FR2	3	R1184M
1967.286	1.085	1282773	DISTRACT_END	n/a	n/a	n/a	-999	0	15	[0, 0, 0]	n/a	0	0	0	n/a	n/a	0.0	0	0	0	FR2	3	R1184M
1968.371	2.622	1283315	REC_START	n/a	n/a	n/a	-999	0	15	[0, 0, 0]	n/a	0	0	0	n/a	n/a	0.0	0	0	0	FR2	3	R1184M
1970.993	0.63	1284626	REC_WORD	2.622	n/a	PIN	8	1	15	[0, 0, 0]	n/a	0	0	0	n/a	n/a	0.0	0	0	0	FR2	3	R1184M
1971.623	1.101	1284941	REC_WORD	3.252	n/a	SPEAR	9	1	15	[0, 0, 0]	n/a	0	0	0	n/a	n/a	0.0	0	0	0	FR2	3	R1184M
1972.724	2.091	1285491	REC_WORD	4.353	n/a	BOWL	5	1	15	[0, 0, 0]	n/a	0	0	0	n/a	n/a	0.0	0	0	0	FR2	3	R1184M
1974.815	15.804	1286537	REC_WORD	6.444	n/a	ROPE	1	1	15	[0, 0, 0]	n/a	0	0	0	n/a	n/a	0.0	0	0	0	FR2	3	R1184M
1990.619	7.761	1294438	REC_WORD	22.248	n/a	LINE	-999	0	15	[0, 0, 0]	n/a	0	0	0	n/a	n/a	0.0	0	0	0	FR2	3	R1184M
1998.38	37.269	1298318	REC_END	n/a	n/a	n/a	-999	0	15	[0, 0, 0]	n/a	0	0	0	n/a	n/a	0.0	0	0	0	FR2	3	R1184M
2035.649	10.0	1316951	COUNTDOWN_START	n/a	n/a	n/a	-999	0	16	[0, 0, 0]	n/a	0	1	0	n/a	n/a	0.0	0	0	0	FR2	3	R1184M
2035.649	10.428	1316951	TRIAL	n/a	n/a	n/a	-999	0	16	[0, 0, 0]	n/a	0	1	0	n/a	n/a	0.0	0	0	0	FR2	3	R1184M
2046.077	0.007	1322165	COUNTDOWN_END	n/a	n/a	n/a	-999	0	16	[0, 0, 0]	n/a	0	1	0	n/a	n/a	0.0	0	0	0	FR2	3	R1184M
2046.084	1.6	1322168	ORIENT	n/a	n/a	n/a	-999	0	16	[0, 0, 0]	n/a	0	1	0	n/a	n/a	0.0	0	0	0	FR2	3	R1184M
2048.601	1.6	1323427	WORD	n/a	wordpools/wordpool_EN.txt	VAN	1	1	16	[0, 0, 0]	n/a	0	1	0	n/a	n/a	0.0	0	0	0	FR2	3	R1184M
2051.001	1.6	1324627	WORD	n/a	wordpools/wordpool_EN.txt	TRAY	2	1	16	[0, 0, 0]	n/a	0	1	0	n/a	n/a	0.0	0	0	0	FR2	3	R1184M
2053.199	4.6	1325726	STIM_ON	n/a	n/a	n/a	-999	0	16	[0, 0, 0]	n/a	1	1	4600	RIPS3	RIPS4	750.0	50	230	300	FR2	3	R1184M
2053.402	1.6	1325827	WORD	n/a	wordpools/wordpool_EN.txt	MAP	3	0	16	[0, 0, 0]	n/a	1	1	4600	RIPS3	RIPS4	750.0	50	230	300	FR2	3	R1184M
2055.868	1.6	1327060	WORD	n/a	wordpools/wordpool_EN.txt	GLOVE	4	0	16	[0, 0, 0]	n/a	1	1	4600	RIPS3	RIPS4	750.0	50	230	300	FR2	3	R1184M
2058.42	1.6	1328336	WORD	n/a	wordpools/wordpool_EN.txt	SPONGE	5	0	16	[0, 0, 0]	n/a	0	1	0	n/a	n/a	0.0	0	0	0	FR2	3	R1184M
2060.903	1.6	1329577	WORD	n/a	wordpools/wordpool_EN.txt	SHEET	6	1	16	[0, 0, 0]	n/a	0	1	0	n/a	n/a	0.0	0	0	0	FR2	3	R1184M
2063.23	4.6	1330741	STIM_ON	n/a	n/a	n/a	-999	0	16	[0, 0, 0]	n/a	1	1	4600	RIPS3	RIPS4	750.0	50	230	300	FR2	3	R1184M
2063.438	1.6	1330845	WORD	n/a	wordpools/wordpool_EN.txt	SLUSH	7	0	16	[0, 0, 0]	n/a	1	1	4600	RIPS3	RIPS4	750.0	50	230	300	FR2	3	R1184M
2066.004	1.6	1332128	WORD	n/a	wordpools/wordpool_EN.txt	JAIL	8	0	16	[0, 0, 0]	n/a	1	1	4600	RIPS3	RIPS4	750.0	50	230	300	FR2	3	R1184M
2068.439	1.6	1333345	WORD	n/a	wordpools/wordpool_EN.txt	SEAT	9	0	16	[0, 0, 0]	n/a	0	1	0	n/a	n/a	0.0	0	0	0	FR2	3	R1184M
2070.888	1.6	1334569	WORD	n/a	wordpools/wordpool_EN.txt	STREET	10	0	16	[0, 0, 0]	n/a	0	1	0	n/a	n/a	0.0	0	0	0	FR2	3	R1184M
2073.16	4.6	1335705	STIM_ON	n/a	n/a	n/a	-999	0	16	[0, 0, 0]	n/a	1	1	4600	RIPS3	RIPS4	750.0	50	230	300	FR2	3	R1184M
2073.373	1.6	1335812	WORD	n/a	wordpools/wordpool_EN.txt	TIE	11	1	16	[0, 0, 0]	n/a	1	1	4600	RIPS3	RIPS4	750.0	50	230	300	FR2	3	R1184M
2075.757	1.6	1337004	WORD	n/a	wordpools/wordpool_EN.txt	STICK	12	0	16	[0, 0, 0]	n/a	1	1	4600	RIPS3	RIPS4	750.0	50	230	300	FR2	3	R1184M
2077.374	0.0	1337812	DISTRACT_START	n/a	n/a	n/a	-999	0	16	[0, 0, 0]	n/a	1	1	4600	RIPS3	RIPS4	750.0	50	230	300	FR2	3	R1184M
2077.374	0.016	1337812	START	n/a	n/a	n/a	-999	0	16	[-999, -999, -999]	n/a	0	1	0	n/a	n/a	0.0	0	0	0	FR2	3	R1184M
2077.39	44.829	1337820	PROB	44.829	n/a	n/a	-999	0	16	[4, 5, 7]	16	0	1	0	n/a	n/a	0.0	0	0	0	FR2	3	R1184M
2122.219	0.013	1360233	STOP	n/a	n/a	n/a	-999	0	16	[-999, -999, -999]	n/a	0	1	0	n/a	n/a	0.0	0	0	0	FR2	3	R1184M
2122.232	1.218	1360239	DISTRACT_END	n/a	n/a	n/a	-999	0	16	[0, 0, 0]	n/a	0	1	0	n/a	n/a	0.0	0	0	0	FR2	3	R1184M
2123.45	1.626	1360848	REC_START	n/a	n/a	n/a	-999	0	16	[0, 0, 0]	n/a	0	1	0	n/a	n/a	0.0	0	0	0	FR2	3	R1184M
2125.076	0.611	1361661	REC_WORD	1.626	n/a	VAN	1	1	16	[0, 0, 0]	n/a	0	1	0	n/a	n/a	0.0	0	0	0	FR2	3	R1184M
2125.687	13.682	1361967	REC_WORD	2.237	n/a	TRAY	2	1	16	[0, 0, 0]	n/a	0	1	0	n/a	n/a	0.0	0	0	0	FR2	3	R1184M
2139.369	4.657	1368807	REC_WORD	15.919	n/a	TIE	11	1	16	[0, 0, 0]	n/a	0	1	0	n/a	n/a	0.0	0	0	0	FR2	3	R1184M
2144.026	9.433	1371135	REC_WORD	20.576	n/a	SHEET	6	1	16	[0, 0, 0]	n/a	0	1	0	n/a	n/a	0.0	0	0	0	FR2	3	R1184M
2153.459	43.138	1375852	REC_END	n/a	n/a	n/a	-999	0	16	[0, 0, 0]	n/a	0	1	0	n/a	n/a	0.0	0	0	0	FR2	3	R1184M
2196.597	0.0	1397419	TRIAL	n/a	n/a	n/a	-999	0	17	[0, 0, 0]	n/a	0	0	0	n/a	n/a	0.0	0	0	0	FR2	3	R1184M
2196.597	10.0	1397419	COUNTDOWN_START	n/a	n/a	n/a	-999	0	17	[0, 0, 0]	n/a	0	0	0	n/a	n/a	0.0	0	0	0	FR2	3	R1184M
2207.025	0.006	1402632	COUNTDOWN_END	n/a	n/a	n/a	-999	0	17	[0, 0, 0]	n/a	0	0	0	n/a	n/a	0.0	0	0	0	FR2	3	R1184M
2207.031	1.6	1402635	ORIENT	n/a	n/a	n/a	-999	0	17	[0, 0, 0]	n/a	0	0	0	n/a	n/a	0.0	0	0	0	FR2	3	R1184M
2209.549	1.6	1403894	WORD	n/a	wordpools/wordpool_EN.txt	DOG	1	1	17	[0, 0, 0]	n/a	0	0	0	n/a	n/a	0.0	0	0	0	FR2	3	R1184M
2212.166	1.6	1405203	WORD	n/a	wordpools/wordpool_EN.txt	WOOD	2	1	17	[0, 0, 0]	n/a	0	0	0	n/a	n/a	0.0	0	0	0	FR2	3	R1184M
2214.683	1.6	1406461	WORD	n/a	wordpools/wordpool_EN.txt	EEL	3	1	17	[0, 0, 0]	n/a	0	0	0	n/a	n/a	0.0	0	0	0	FR2	3	R1184M
2217.201	1.6	1407720	WORD	n/a	wordpools/wordpool_EN.txt	FOAM	4	1	17	[0, 0, 0]	n/a	0	0	0	n/a	n/a	0.0	0	0	0	FR2	3	R1184M
2219.584	1.6	1408911	WORD	n/a	wordpools/wordpool_EN.txt	MAIL	5	1	17	[0, 0, 0]	n/a	0	0	0	n/a	n/a	0.0	0	0	0	FR2	3	R1184M
2222.034	1.6	1410136	WORD	n/a	wordpools/wordpool_EN.txt	WOLF	6	0	17	[0, 0, 0]	n/a	0	0	0	n/a	n/a	0.0	0	0	0	FR2	3	R1184M
2224.569	1.6	1411404	WORD	n/a	wordpools/wordpool_EN.txt	LAND	7	0	17	[0, 0, 0]	n/a	0	0	0	n/a	n/a	0.0	0	0	0	FR2	3	R1184M
2227.136	1.6	1412687	WORD	n/a	wordpools/wordpool_EN.txt	WHEEL	8	0	17	[0, 0, 0]	n/a	0	0	0	n/a	n/a	0.0	0	0	0	FR2	3	R1184M
2229.62	1.6	1413929	WORD	n/a	wordpools/wordpool_EN.txt	CHALK	9	0	17	[0, 0, 0]	n/a	0	0	0	n/a	n/a	0.0	0	0	0	FR2	3	R1184M
2232.036	1.6	1415137	WORD	n/a	wordpools/wordpool_EN.txt	TAIL	10	0	17	[0, 0, 0]	n/a	0	0	0	n/a	n/a	0.0	0	0	0	FR2	3	R1184M
2234.421	1.6	1416329	WORD	n/a	wordpools/wordpool_EN.txt	SIGN	11	0	17	[0, 0, 0]	n/a	0	0	0	n/a	n/a	0.0	0	0	0	FR2	3	R1184M
2236.986	1.6	1417612	WORD	n/a	wordpools/wordpool_EN.txt	TANK	12	0	17	[0, 0, 0]	n/a	0	0	0	n/a	n/a	0.0	0	0	0	FR2	3	R1184M
2238.588	0.001	1418413	DISTRACT_START	n/a	n/a	n/a	-999	0	17	[0, 0, 0]	n/a	0	0	0	n/a	n/a	0.0	0	0	0	FR2	3	R1184M
2238.589	0.016	1418413	START	n/a	n/a	n/a	-999	0	17	[-999, -999, -999]	n/a	0	0	0	n/a	n/a	0.0	0	0	0	FR2	3	R1184M
2238.605	32.158	1418421	PROB	32.158	n/a	n/a	-999	0	17	[4, 4, 7]	15	0	0	0	n/a	n/a	0.0	0	0	0	FR2	3	R1184M
2270.763	0.015	1434499	STOP	n/a	n/a	n/a	-999	0	17	[-999, -999, -999]	n/a	0	0	0	n/a	n/a	0.0	0	0	0	FR2	3	R1184M
2270.778	1.099	1434506	DISTRACT_END	n/a	n/a	n/a	-999	0	17	[0, 0, 0]	n/a	0	0	0	n/a	n/a	0.0	0	0	0	FR2	3	R1184M
2271.877	1.057	1435056	REC_START	n/a	n/a	n/a	-999	0	17	[0, 0, 0]	n/a	0	0	0	n/a	n/a	0.0	0	0	0	FR2	3	R1184M
2272.934	0.487	1435584	REC_WORD	1.057	n/a	DOG	1	1	17	[0, 0, 0]	n/a	0	0	0	n/a	n/a	0.0	0	0	0	FR2	3	R1184M
2273.421	0.325	1435828	REC_WORD	1.544	n/a	WOOD	2	1	17	[0, 0, 0]	n/a	0	0	0	n/a	n/a	0.0	0	0	0	FR2	3	R1184M
2273.746	0.834	1435990	REC_WORD	1.869	n/a	MAIL	5	1	17	[0, 0, 0]	n/a	0	0	0	n/a	n/a	0.0	0	0	0	FR2	3	R1184M
2274.58	0.57	1436407	REC_WORD	2.703	n/a	EEL	3	1	17	[0, 0, 0]	n/a	0	0	0	n/a	n/a	0.0	0	0	0	FR2	3	R1184M
2275.15	26.741	1436692	REC_WORD	3.273	n/a	FOAM	4	1	17	[0, 0, 0]	n/a	0	0	0	n/a	n/a	0.0	0	0	0	FR2	3	R1184M
2301.891	478.851	1450061	REC_END	n/a	n/a	n/a	-999	0	17	[0, 0, 0]	n/a	0	0	0	n/a	n/a	0.0	0	0	0	FR2	3	R1184M
2780.742	10.0	1689468	COUNTDOWN_START	n/a	n/a	n/a	-999	0	18	[0, 0, 0]	n/a	0	1	0	n/a	n/a	0.0	0	0	0	FR2	3	R1184M
2780.743	10.427	1689468	TRIAL	n/a	n/a	n/a	-999	0	18	[0, 0, 0]	n/a	0	1	0	n/a	n/a	0.0	0	0	0	FR2	3	R1184M
2791.17	0.008	1694681	COUNTDOWN_END	n/a	n/a	n/a	-999	0	18	[0, 0, 0]	n/a	0	1	0	n/a	n/a	0.0	0	0	0	FR2	3	R1184M
2791.178	1.6	1694685	ORIENT	n/a	n/a	n/a	-999	0	18	[0, 0, 0]	n/a	0	1	0	n/a	n/a	0.0	0	0	0	FR2	3	R1184M
2793.595	1.6	1695893	WORD	n/a	wordpools/wordpool_EN.txt	CART	1	1	18	[0, 0, 0]	n/a	0	1	0	n/a	n/a	0.0	0	0	0	FR2	3	R1184M
2796.044	1.6	1697118	WORD	n/a	wordpools/wordpool_EN.txt	PEAR	2	0	18	[0, 0, 0]	n/a	0	1	0	n/a	n/a	0.0	0	0	0	FR2	3	R1184M
2798.323	4.6	1698257	STIM_ON	n/a	n/a	n/a	-999	0	18	[0, 0, 0]	n/a	1	1	4600	RIPS3	RIPS4	750.0	50	230	300	FR2	3	R1184M
2798.529	1.6	1698360	WORD	n/a	wordpools/wordpool_EN.txt	VASE	3	0	18	[0, 0, 0]	n/a	1	1	4600	RIPS3	RIPS4	750.0	50	230	300	FR2	3	R1184M
2801.012	1.6	1699602	WORD	n/a	wordpools/wordpool_EN.txt	AXE	4	1	18	[0, 0, 0]	n/a	1	1	4600	RIPS3	RIPS4	750.0	50	230	300	FR2	3	R1184M
2803.497	1.6	1700844	WORD	n/a	wordpools/wordpool_EN.txt	TREE	5	0	18	[0, 0, 0]	n/a	0	1	0	n/a	n/a	0.0	0	0	0	FR2	3	R1184M
2805.896	1.6	1702043	WORD	n/a	wordpools/wordpool_EN.txt	DOOR	6	0	18	[0, 0, 0]	n/a	0	1	0	n/a	n/a	0.0	0	0	0	FR2	3	R1184M
2808.273	4.6	1703232	STIM_ON	n/a	n/a	n/a	-999	0	18	[0, 0, 0]	n/a	1	1	4600	RIPS3	RIPS4	750.0	50	230	300	FR2	3	R1184M
2808.481	1.6	1703336	WORD	n/a	wordpools/wordpool_EN.txt	APE	7	0	18	[0, 0, 0]	n/a	1	1	4600	RIPS3	RIPS4	750.0	50	230	300	FR2	3	R1184M
2811.082	1.6	1704636	WORD	n/a	wordpools/wordpool_EN.txt	BIRD	8	1	18	[0, 0, 0]	n/a	1	1	4600	RIPS3	RIPS4	750.0	50	230	300	FR2	3	R1184M
2813.599	1.6	1705895	WORD	n/a	wordpools/wordpool_EN.txt	LAWN	9	0	18	[0, 0, 0]	n/a	0	1	0	n/a	n/a	0.0	0	0	0	FR2	3	R1184M
2816.099	1.6	1707145	WORD	n/a	wordpools/wordpool_EN.txt	COIN	10	0	18	[0, 0, 0]	n/a	0	1	0	n/a	n/a	0.0	0	0	0	FR2	3	R1184M
2818.325	4.6	1708257	STIM_ON	n/a	n/a	n/a	-999	0	18	[0, 0, 0]	n/a	1	1	4600	RIPS3	RIPS4	750.0	50	230	300	FR2	3	R1184M
2818.533	1.6	1708361	WORD	n/a	wordpools/wordpool_EN.txt	OAK	11	0	18	[0, 0, 0]	n/a	1	1	4600	RIPS3	RIPS4	750.0	50	230	300	FR2	3	R1184M
2821.134	1.6	1709662	WORD	n/a	wordpools/wordpool_EN.txt	SWAMP	12	1	18	[0, 0, 0]	n/a	1	1	4600	RIPS3	RIPS4	750.0	50	230	300	FR2	3	R1184M
2822.751	0.0	1710470	DISTRACT_START	n/a	n/a	n/a	-999	0	18	[0, 0, 0]	n/a	1	1	4600	RIPS3	RIPS4	750.0	50	230	300	FR2	3	R1184M
2822.751	0.016	1710470	START	n/a	n/a	n/a	-999	0	18	[-999, -999, -999]	n/a	0	1	0	n/a	n/a	0.0	0	0	0	FR2	3	R1184M
2822.767	41.956	1710478	PROB	41.956	n/a	n/a	-999	0	18	[2, 4, 3]	9	0	1	0	n/a	n/a	0.0	0	0	0	FR2	3	R1184M
2864.723	0.019	1731455	STOP	n/a	n/a	n/a	-999	0	18	[-999, -999, -999]	n/a	0	1	0	n/a	n/a	0.0	0	0	0	FR2	3	R1184M
2864.742	1.133	1731464	DISTRACT_END	n/a	n/a	n/a	-999	0	18	[0, 0, 0]	n/a	0	1	0	n/a	n/a	0.0	0	0	0	FR2	3	R1184M
2865.875	0.731	1732031	REC_START	n/a	n/a	n/a	-999	0	18	[0, 0, 0]	n/a	0	1	0	n/a	n/a	0.0	0	0	0	FR2	3	R1184M
2866.606	0.535	1732396	REC_WORD	0.731	n/a	CART	1	1	18	[0, 0, 0]	n/a	0	1	0	n/a	n/a	0.0	0	0	0	FR2	3	R1184M
2867.141	0.573	1732663	REC_WORD	1.266	n/a	AXE	4	1	18	[0, 0, 0]	n/a	0	1	0	n/a	n/a	0.0	0	0	0	FR2	3	R1184M
2867.714	2.681	1732950	REC_WORD	1.839	n/a	BIRD	8	1	18	[0, 0, 0]	n/a	0	1	0	n/a	n/a	0.0	0	0	0	FR2	3	R1184M
2870.395	1.655	1734290	REC_WORD	4.52	n/a	DOG	-999	0	18	[0, 0, 0]	n/a	0	1	0	n/a	n/a	0.0	0	0	0	FR2	3	R1184M
2872.05	23.839	1735118	REC_WORD	6.175	n/a	SWAMP	12	1	18	[0, 0, 0]	n/a	0	1	0	n/a	n/a	0.0	0	0	0	FR2	3	R1184M
2895.889	11.561	1747036	REC_END	n/a	n/a	n/a	-999	0	18	[0, 0, 0]	n/a	0	1	0	n/a	n/a	0.0	0	0	0	FR2	3	R1184M
2907.45	10.0	1752816	COUNTDOWN_START	n/a	n/a	n/a	-999	0	19	[0, 0, 0]	n/a	0	1	0	n/a	n/a	0.0	0	0	0	FR2	3	R1184M
2907.451	10.427	1752817	TRIAL	n/a	n/a	n/a	-999	0	19	[0, 0, 0]	n/a	0	1	0	n/a	n/a	0.0	0	0	0	FR2	3	R1184M
2917.878	0.007	1758030	COUNTDOWN_END	n/a	n/a	n/a	-999	0	19	[0, 0, 0]	n/a	0	1	0	n/a	n/a	0.0	0	0	0	FR2	3	R1184M
2917.885	1.6	1758033	ORIENT	n/a	n/a	n/a	-999	0	19	[0, 0, 0]	n/a	0	1	0	n/a	n/a	0.0	0	0	0	FR2	3	R1184M
2920.154	4.6	1759168	STIM_ON	n/a	n/a	n/a	-999	0	19	[0, 0, 0]	n/a	1	1	4600	RIPS3	RIPS4	750.0	50	230	300	FR2	3	R1184M
2920.369	1.6	1759275	WORD	n/a	wordpools/wordpool_EN.txt	OWL	1	1	19	[0, 0, 0]	n/a	1	1	4600	RIPS3	RIPS4	750.0	50	230	300	FR2	3	R1184M
2922.803	1.6	1760492	WORD	n/a	wordpools/wordpool_EN.txt	SINK	2	0	19	[0, 0, 0]	n/a	1	1	4600	RIPS3	RIPS4	750.0	50	230	300	FR2	3	R1184M
2925.42	1.6	1761801	WORD	n/a	wordpools/wordpool_EN.txt	BENCH	3	0	19	[0, 0, 0]	n/a	0	1	0	n/a	n/a	0.0	0	0	0	FR2	3	R1184M
2927.853	1.6	1763017	WORD	n/a	wordpools/wordpool_EN.txt	NEST	4	1	19	[0, 0, 0]	n/a	0	1	0	n/a	n/a	0.0	0	0	0	FR2	3	R1184M
2930.116	4.6	1764148	STIM_ON	n/a	n/a	n/a	-999	0	19	[0, 0, 0]	n/a	1	1	4600	RIPS3	RIPS4	750.0	50	230	300	FR2	3	R1184M
2930.321	1.6	1764251	WORD	n/a	wordpools/wordpool_EN.txt	TEA	5	0	19	[0, 0, 0]	n/a	1	1	4600	RIPS3	RIPS4	750.0	50	230	300	FR2	3	R1184M
2932.755	1.6	1765468	WORD	n/a	wordpools/wordpool_EN.txt	BOAT	6	1	19	[0, 0, 0]	n/a	1	1	4600	RIPS3	RIPS4	750.0	50	230	300	FR2	3	R1184M
2935.305	1.6	1766743	WORD	n/a	wordpools/wordpool_EN.txt	ANT	7	1	19	[0, 0, 0]	n/a	0	1	0	n/a	n/a	0.0	0	0	0	FR2	3	R1184M
2937.922	1.6	1768051	WORD	n/a	wordpools/wordpool_EN.txt	ELF	8	0	19	[0, 0, 0]	n/a	0	1	0	n/a	n/a	0.0	0	0	0	FR2	3	R1184M
2940.341	4.6	1769261	STIM_ON	n/a	n/a	n/a	-999	0	19	[0, 0, 0]	n/a	1	1	4600	RIPS3	RIPS4	750.0	50	230	300	FR2	3	R1184M
2940.557	1.6	1769369	WORD	n/a	wordpools/wordpool_EN.txt	WAVE	9	1	19	[0, 0, 0]	n/a	1	1	4600	RIPS3	RIPS4	750.0	50	230	300	FR2	3	R1184M
2943.157	1.6	1770668	WORD	n/a	wordpools/wordpool_EN.txt	NOSE	10	0	19	[0, 0, 0]	n/a	1	1	4600	RIPS3	RIPS4	750.0	50	230	300	FR2	3	R1184M
2945.574	1.6	1771877	WORD	n/a	wordpools/wordpool_EN.txt	TRASH	11	0	19	[0, 0, 0]	n/a	0	1	0	n/a	n/a	0.0	0	0	0	FR2	3	R1184M
2947.99	1.6	1773085	WORD	n/a	wordpools/wordpool_EN.txt	FOG	12	1	19	[0, 0, 0]	n/a	0	1	0	n/a	n/a	0.0	0	0	0	FR2	3	R1184M
2949.592	0.0	1773886	DISTRACT_START	n/a	n/a	n/a	-999	0	19	[0, 0, 0]	n/a	0	1	0	n/a	n/a	0.0	0	0	0	FR2	3	R1184M
2949.592	0.016	1773886	START	n/a	n/a	n/a	-999	0	19	[-999, -999, -999]	n/a	0	1	0	n/a	n/a	0.0	0	0	0	FR2	3	R1184M
2949.608	14.953	1773894	PROB	14.931	n/a	n/a	-999	0	19	[2, 9, 7]	18	0	1	0	n/a	n/a	0.0	0	0	0	FR2	3	R1184M
2964.561	6.898	1781370	PROB	6.898	n/a	n/a	-999	0	19	[4, 6, 4]	14	0	1	0	n/a	n/a	0.0	0	0	0	FR2	3	R1184M
2971.459	0.003	1784818	STOP	n/a	n/a	n/a	-999	0	19	[-999, -999, -999]	n/a	0	1	0	n/a	n/a	0.0	0	0	0	FR2	3	R1184M
2971.462	1.068	1784820	DISTRACT_END	n/a	n/a	n/a	-999	0	19	[0, 0, 0]	n/a	0	1	0	n/a	n/a	0.0	0	0	0	FR2	3	R1184M
2972.53	0.589	1785354	REC_START	n/a	n/a	n/a	-999	0	19	[0, 0, 0]	n/a	0	1	0	n/a	n/a	0.0	0	0	0	FR2	3	R1184M
2973.119	0.393	1785648	REC_WORD	0.589	n/a	OWL	1	1	19	[0, 0, 0]	n/a	0	1	0	n/a	n/a	0.0	0	0	0	FR2	3	R1184M
2973.512	0.371	1785845	REC_WORD	0.982	n/a	BOAT	6	1	19	[0, 0, 0]	n/a	0	1	0	n/a	n/a	0.0	0	0	0	FR2	3	R1184M
2973.883	0.433	1786030	REC_WORD	1.353	n/a	NEST	4	1	19	[0, 0, 0]	n/a	0	1	0	n/a	n/a	0.0	0	0	0	FR2	3	R1184M
2974.316	0.475	1786247	REC_WORD	1.786	n/a	ANT	7	1	19	[0, 0, 0]	n/a	0	1	0	n/a	n/a	0.0	0	0	0	FR2	3	R1184M
2974.791	1.071	1786484	REC_WORD	2.261	n/a	WAVE	9	1	19	[0, 0, 0]	n/a	0	1	0	n/a	n/a	0.0	0	0	0	FR2	3	R1184M
2975.862	26.678	1787020	REC_WORD	3.332	n/a	FOG	12	1	19	[0, 0, 0]	n/a	0	1	0	n/a	n/a	0.0	0	0	0	FR2	3	R1184M
3002.54	4.328	1800357	REC_END	n/a	n/a	n/a	-999	0	19	[0, 0, 0]	n/a	0	1	0	n/a	n/a	0.0	0	0	0	FR2	3	R1184M
3006.868	10.0	1802521	COUNTDOWN_START	n/a	n/a	n/a	-999	0	20	[0, 0, 0]	n/a	0	1	0	n/a	n/a	0.0	0	0	0	FR2	3	R1184M
3006.869	10.427	1802522	TRIAL	n/a	n/a	n/a	-999	0	20	[0, 0, 0]	n/a	0	1	0	n/a	n/a	0.0	0	0	0	FR2	3	R1184M
3017.296	0.009	1807735	COUNTDOWN_END	n/a	n/a	n/a	-999	0	20	[0, 0, 0]	n/a	0	1	0	n/a	n/a	0.0	0	0	0	FR2	3	R1184M
3017.305	1.6	1807739	ORIENT	n/a	n/a	n/a	-999	0	20	[0, 0, 0]	n/a	0	1	0	n/a	n/a	0.0	0	0	0	FR2	3	R1184M
3019.706	4.6	1808940	STIM_ON	n/a	n/a	n/a	-999	0	20	[0, 0, 0]	n/a	1	1	4600	RIPS3	RIPS4	750.0	50	230	300	FR2	3	R1184M
3019.921	1.6	1809047	WORD	n/a	wordpools/wordpool_EN.txt	SLEEVE	1	0	20	[0, 0, 0]	n/a	1	1	4600	RIPS3	RIPS4	750.0	50	230	300	FR2	3	R1184M
3022.439	1.6	1810306	WORD	n/a	wordpools/wordpool_EN.txt	SQUARE	2	1	20	[0, 0, 0]	n/a	1	1	4600	RIPS3	RIPS4	750.0	50	230	300	FR2	3	R1184M
3024.872	1.6	1811523	WORD	n/a	wordpools/wordpool_EN.txt	SHELL	3	1	20	[0, 0, 0]	n/a	0	1	0	n/a	n/a	0.0	0	0	0	FR2	3	R1184M
3027.423	1.6	1812798	WORD	n/a	wordpools/wordpool_EN.txt	RIB	4	0	20	[0, 0, 0]	n/a	0	1	0	n/a	n/a	0.0	0	0	0	FR2	3	R1184M
3029.744	4.6	1813958	STIM_ON	n/a	n/a	n/a	-999	0	20	[0, 0, 0]	n/a	1	1	4600	RIPS3	RIPS4	750.0	50	230	300	FR2	3	R1184M
3029.956	1.6	1814064	WORD	n/a	wordpools/wordpool_EN.txt	SUIT	5	0	20	[0, 0, 0]	n/a	1	1	4600	RIPS3	RIPS4	750.0	50	230	300	FR2	3	R1184M
3032.408	1.6	1815290	WORD	n/a	wordpools/wordpool_EN.txt	ROOT	6	1	20	[0, 0, 0]	n/a	1	1	4600	RIPS3	RIPS4	750.0	50	230	300	FR2	3	R1184M
3034.874	1.6	1816523	WORD	n/a	wordpools/wordpool_EN.txt	BOARD	7	1	20	[0, 0, 0]	n/a	0	1	0	n/a	n/a	0.0	0	0	0	FR2	3	R1184M
3037.342	1.6	1817757	WORD	n/a	wordpools/wordpool_EN.txt	ICE	8	0	20	[0, 0, 0]	n/a	0	1	0	n/a	n/a	0.0	0	0	0	FR2	3	R1184M
3039.68	4.6	1818926	STIM_ON	n/a	n/a	n/a	-999	0	20	[0, 0, 0]	n/a	1	1	4600	RIPS3	RIPS4	750.0	50	230	300	FR2	3	R1184M
3039.892	1.6	1819032	WORD	n/a	wordpools/wordpool_EN.txt	HOOK	9	0	20	[0, 0, 0]	n/a	1	1	4600	RIPS3	RIPS4	750.0	50	230	300	FR2	3	R1184M
3042.326	1.6	1820249	WORD	n/a	wordpools/wordpool_EN.txt	FOOT	10	1	20	[0, 0, 0]	n/a	1	1	4600	RIPS3	RIPS4	750.0	50	230	300	FR2	3	R1184M
3044.827	1.6	1821499	WORD	n/a	wordpools/wordpool_EN.txt	SEA	11	0	20	[0, 0, 0]	n/a	0	1	0	n/a	n/a	0.0	0	0	0	FR2	3	R1184M
3047.244	1.6	1822708	WORD	n/a	wordpools/wordpool_EN.txt	GUARD	12	0	20	[0, 0, 0]	n/a	0	1	0	n/a	n/a	0.0	0	0	0	FR2	3	R1184M
3048.86	0.001	1823516	DISTRACT_START	n/a	n/a	n/a	-999	0	20	[0, 0, 0]	n/a	0	1	0	n/a	n/a	0.0	0	0	0	FR2	3	R1184M
3048.861	0.016	1823516	START	n/a	n/a	n/a	-999	0	20	[-999, -999, -999]	n/a	0	1	0	n/a	n/a	0.0	0	0	0	FR2	3	R1184M
3048.877	45.382	1823524	PROB	45.382	n/a	n/a	-999	0	20	[5, 8, 9]	21	0	1	0	n/a	n/a	0.0	0	0	0	FR2	3	R1184M
3094.259	0.011	1846213	STOP	n/a	n/a	n/a	-999	0	20	[-999, -999, -999]	n/a	0	1	0	n/a	n/a	0.0	0	0	0	FR2	3	R1184M
3094.27	1.117	1846219	DISTRACT_END	n/a	n/a	n/a	-999	0	20	[0, 0, 0]	n/a	0	1	0	n/a	n/a	0.0	0	0	0	FR2	3	R1184M
3095.387	0.549	1846777	REC_START	n/a	n/a	n/a	-999	0	20	[0, 0, 0]	n/a	0	1	0	n/a	n/a	0.0	0	0	0	FR2	3	R1184M
3095.936	0.462	1847052	REC_WORD	0.549	n/a	SHELL	3	1	20	[0, 0, 0]	n/a	0	1	0	n/a	n/a	0.0	0	0	0	FR2	3	R1184M
3096.398	0.278	1847283	REC_WORD	1.011	n/a	ROOT	6	1	20	[0, 0, 0]	n/a	0	1	0	n/a	n/a	0.0	0	0	0	FR2	3	R1184M
3096.676	0.873	1847422	REC_WORD	1.289	n/a	SQUARE	2	1	20	[0, 0, 0]	n/a	0	1	0	n/a	n/a	0.0	0	0	0	FR2	3	R1184M
3097.549	0.455	1847858	REC_WORD	2.162	n/a	BOARD	7	1	20	[0, 0, 0]	n/a	0	1	0	n/a	n/a	0.0	0	0	0	FR2	3	R1184M
3098.004	27.397	1848086	REC_WORD	2.617	n/a	FOOT	10	1	20	[0, 0, 0]	n/a	0	1	0	n/a	n/a	0.0	0	0	0	FR2	3	R1184M
3125.401	7.026	1861783	REC_END	n/a	n/a	n/a	-999	0	20	[0, 0, 0]	n/a	0	1	0	n/a	n/a	0.0	0	0	0	FR2	3	R1184M
3132.427	0.0	1865296	TRIAL	n/a	n/a	n/a	-999	0	21	[0, 0, 0]	n/a	0	1	0	n/a	n/a	0.0	0	0	0	FR2	3	R1184M
3132.427	10.0	1865296	COUNTDOWN_START	n/a	n/a	n/a	-999	0	21	[0, 0, 0]	n/a	0	1	0	n/a	n/a	0.0	0	0	0	FR2	3	R1184M
3142.855	0.006	1870509	COUNTDOWN_END	n/a	n/a	n/a	-999	0	21	[0, 0, 0]	n/a	0	1	0	n/a	n/a	0.0	0	0	0	FR2	3	R1184M
3142.861	1.6	1870512	ORIENT	n/a	n/a	n/a	-999	0	21	[0, 0, 0]	n/a	0	1	0	n/a	n/a	0.0	0	0	0	FR2	3	R1184M
3145.266	4.6	1871715	STIM_ON	n/a	n/a	n/a	-999	0	21	[0, 0, 0]	n/a	1	1	4600	RIPS3	RIPS4	750.0	50	230	300	FR2	3	R1184M
3145.48	1.6	1871822	WORD	n/a	wordpools/wordpool_EN.txt	SOUP	1	1	21	[0, 0, 0]	n/a	1	1	4600	RIPS3	RIPS4	750.0	50	230	300	FR2	3	R1184M
3148.113	1.6	1873138	WORD	n/a	wordpools/wordpool_EN.txt	CASH	2	0	21	[0, 0, 0]	n/a	1	1	4600	RIPS3	RIPS4	750.0	50	230	300	FR2	3	R1184M
3150.514	1.6	1874338	WORD	n/a	wordpools/wordpool_EN.txt	PALM	3	1	21	[0, 0, 0]	n/a	0	1	0	n/a	n/a	0.0	0	0	0	FR2	3	R1184M
3153.098	1.6	1875630	WORD	n/a	wordpools/wordpool_EN.txt	KEY	4	1	21	[0, 0, 0]	n/a	0	1	0	n/a	n/a	0.0	0	0	0	FR2	3	R1184M
3155.362	4.6	1876762	STIM_ON	n/a	n/a	n/a	-999	0	21	[0, 0, 0]	n/a	1	1	4600	RIPS3	RIPS4	750.0	50	230	300	FR2	3	R1184M
3155.565	1.6	1876864	WORD	n/a	wordpools/wordpool_EN.txt	WEB	5	0	21	[0, 0, 0]	n/a	1	1	4600	RIPS3	RIPS4	750.0	50	230	300	FR2	3	R1184M
3158.182	1.6	1878172	WORD	n/a	wordpools/wordpool_EN.txt	NET	6	1	21	[0, 0, 0]	n/a	1	1	4600	RIPS3	RIPS4	750.0	50	230	300	FR2	3	R1184M
3160.666	1.6	1879414	WORD	n/a	wordpools/wordpool_EN.txt	OAR	7	1	21	[0, 0, 0]	n/a	0	1	0	n/a	n/a	0.0	0	0	0	FR2	3	R1184M
3163.133	1.6	1880647	WORD	n/a	wordpools/wordpool_EN.txt	MILK	8	1	21	[0, 0, 0]	n/a	0	1	0	n/a	n/a	0.0	0	0	0	FR2	3	R1184M
3165.359	4.6	1881760	STIM_ON	n/a	n/a	n/a	-999	0	21	[0, 0, 0]	n/a	1	1	4600	RIPS3	RIPS4	750.0	50	230	300	FR2	3	R1184M
3165.567	1.6	1881864	WORD	n/a	wordpools/wordpool_EN.txt	HAWK	9	0	21	[0, 0, 0]	n/a	1	1	4600	RIPS3	RIPS4	750.0	50	230	300	FR2	3	R1184M
3168.05	1.6	1883106	WORD	n/a	wordpools/wordpool_EN.txt	PLANT	10	0	21	[0, 0, 0]	n/a	1	1	4600	RIPS3	RIPS4	750.0	50	230	300	FR2	3	R1184M
3170.484	1.6	1884323	WORD	n/a	wordpools/wordpool_EN.txt	BAT	11	0	21	[0, 0, 0]	n/a	0	1	0	n/a	n/a	0.0	0	0	0	FR2	3	R1184M
3172.867	1.6	1885514	WORD	n/a	wordpools/wordpool_EN.txt	CAKE	12	0	21	[0, 0, 0]	n/a	0	1	0	n/a	n/a	0.0	0	0	0	FR2	3	R1184M
3174.485	0.001	1886323	DISTRACT_START	n/a	n/a	n/a	-999	0	21	[0, 0, 0]	n/a	0	1	0	n/a	n/a	0.0	0	0	0	FR2	3	R1184M
3174.486	0.016	1886323	START	n/a	n/a	n/a	-999	0	21	[-999, -999, -999]	n/a	0	1	0	n/a	n/a	0.0	0	0	0	FR2	3	R1184M
3174.502	17.203	1886331	PROB	17.181	n/a	n/a	-999	0	21	[2, 2, 4]	8	0	1	0	n/a	n/a	0.0	0	0	0	FR2	3	R1184M
3191.705	9.034	1894932	PROB	9.034	n/a	n/a	-999	0	21	[5, 2, 1]	8	0	1	0	n/a	n/a	0.0	0	0	0	FR2	3	R1184M
3200.739	0.018	1899449	STOP	n/a	n/a	n/a	-999	0	21	[-999, -999, -999]	n/a	0	1	0	n/a	n/a	0.0	0	0	0	FR2	3	R1184M
3200.757	1.1	1899458	DISTRACT_END	n/a	n/a	n/a	-999	0	21	[0, 0, 0]	n/a	0	1	0	n/a	n/a	0.0	0	0	0	FR2	3	R1184M
3201.857	0.299	1900008	REC_START	n/a	n/a	n/a	-999	0	21	[0, 0, 0]	n/a	0	1	0	n/a	n/a	0.0	0	0	0	FR2	3	R1184M
3202.156	0.54	1900157	REC_WORD	0.299	n/a	SOUP	1	1	21	[0, 0, 0]	n/a	0	1	0	n/a	n/a	0.0	0	0	0	FR2	3	R1184M
3202.696	0.485	1900427	REC_WORD	0.839	n/a	PALM	3	1	21	[0, 0, 0]	n/a	0	1	0	n/a	n/a	0.0	0	0	0	FR2	3	R1184M
3203.181	0.406	1900670	REC_WORD	1.324	n/a	KEY	4	1	21	[0, 0, 0]	n/a	0	1	0	n/a	n/a	0.0	0	0	0	FR2	3	R1184M
3203.587	1.034	1900873	REC_WORD	1.73	n/a	NET	6	1	21	[0, 0, 0]	n/a	0	1	0	n/a	n/a	0.0	0	0	0	FR2	3	R1184M
3204.621	1.31	1901390	REC_WORD	2.764	n/a	OAR	7	1	21	[0, 0, 0]	n/a	0	1	0	n/a	n/a	0.0	0	0	0	FR2	3	R1184M
3205.931	25.935	1902045	REC_WORD	4.074	n/a	MILK	8	1	21	[0, 0, 0]	n/a	0	1	0	n/a	n/a	0.0	0	0	0	FR2	3	R1184M
3231.866	8.248	1915011	REC_END	n/a	n/a	n/a	-999	0	21	[0, 0, 0]	n/a	0	1	0	n/a	n/a	0.0	0	0	0	FR2	3	R1184M
3240.114	10.0	1919135	COUNTDOWN_START	n/a	n/a	n/a	-999	0	22	[0, 0, 0]	n/a	0	1	0	n/a	n/a	0.0	0	0	0	FR2	3	R1184M
3240.115	10.427	1919135	TRIAL	n/a	n/a	n/a	-999	0	22	[0, 0, 0]	n/a	0	1	0	n/a	n/a	0.0	0	0	0	FR2	3	R1184M
3250.542	0.008	1924348	COUNTDOWN_END	n/a	n/a	n/a	-999	0	22	[0, 0, 0]	n/a	0	1	0	n/a	n/a	0.0	0	0	0	FR2	3	R1184M
3250.55	1.6	1924352	ORIENT	n/a	n/a	n/a	-999	0	22	[0, 0, 0]	n/a	0	1	0	n/a	n/a	0.0	0	0	0	FR2	3	R1184M
3252.772	4.6	1925463	STIM_ON	n/a	n/a	n/a	-999	0	22	[0, 0, 0]	n/a	1	1	4600	RIPS3	RIPS4	750.0	50	230	300	FR2	3	R1184M
3252.983	1.6	1925569	WORD	n/a	wordpools/wordpool_EN.txt	SEED	1	1	22	[0, 0, 0]	n/a	1	1	4600	RIPS3	RIPS4	750.0	50	230	300	FR2	3	R1184M
3255.401	1.6	1926778	WORD	n/a	wordpools/wordpool_EN.txt	CONE	2	0	22	[0, 0, 0]	n/a	1	1	4600	RIPS3	RIPS4	750.0	50	230	300	FR2	3	R1184M
3257.785	1.6	1927970	WORD	n/a	wordpools/wordpool_EN.txt	DITCH	3	0	22	[0, 0, 0]	n/a	0	1	0	n/a	n/a	0.0	0	0	0	FR2	3	R1184M
3260.252	1.6	1929203	WORD	n/a	wordpools/wordpool_EN.txt	BEAN	4	0	22	[0, 0, 0]	n/a	0	1	0	n/a	n/a	0.0	0	0	0	FR2	3	R1184M
3262.572	4.6	1930363	STIM_ON	n/a	n/a	n/a	-999	0	22	[0, 0, 0]	n/a	1	1	4600	RIPS3	RIPS4	750.0	50	230	300	FR2	3	R1184M
3262.785	1.6	1930469	WORD	n/a	wordpools/wordpool_EN.txt	FOOD	5	0	22	[0, 0, 0]	n/a	1	1	4600	RIPS3	RIPS4	750.0	50	230	300	FR2	3	R1184M
3265.236	1.6	1931695	WORD	n/a	wordpools/wordpool_EN.txt	MOON	6	1	22	[0, 0, 0]	n/a	1	1	4600	RIPS3	RIPS4	750.0	50	230	300	FR2	3	R1184M
3267.67	1.6	1932912	WORD	n/a	wordpools/wordpool_EN.txt	VINE	7	1	22	[0, 0, 0]	n/a	0	1	0	n/a	n/a	0.0	0	0	0	FR2	3	R1184M
3270.204	1.6	1934179	WORD	n/a	wordpools/wordpool_EN.txt	WEED	8	0	22	[0, 0, 0]	n/a	0	1	0	n/a	n/a	0.0	0	0	0	FR2	3	R1184M
3272.613	4.6	1935383	STIM_ON	n/a	n/a	n/a	-999	0	22	[0, 0, 0]	n/a	1	1	4600	RIPS3	RIPS4	750.0	50	230	300	FR2	3	R1184M
3272.821	1.6	1935487	WORD	n/a	wordpools/wordpool_EN.txt	STRAW	9	0	22	[0, 0, 0]	n/a	1	1	4600	RIPS3	RIPS4	750.0	50	230	300	FR2	3	R1184M
3275.238	1.6	1936695	WORD	n/a	wordpools/wordpool_EN.txt	DIME	10	0	22	[0, 0, 0]	n/a	1	1	4600	RIPS3	RIPS4	750.0	50	230	300	FR2	3	R1184M
3277.788	1.6	1937970	WORD	n/a	wordpools/wordpool_EN.txt	CHEEK	11	1	22	[0, 0, 0]	n/a	0	1	0	n/a	n/a	0.0	0	0	0	FR2	3	R1184M
3280.172	1.6	1939162	WORD	n/a	wordpools/wordpool_EN.txt	CHAIR	12	1	22	[0, 0, 0]	n/a	0	1	0	n/a	n/a	0.0	0	0	0	FR2	3	R1184M
3281.789	0.001	1939971	DISTRACT_START	n/a	n/a	n/a	-999	0	22	[0, 0, 0]	n/a	0	1	0	n/a	n/a	0.0	0	0	0	FR2	3	R1184M
3281.79	0.016	1939971	START	n/a	n/a	n/a	-999	0	22	[-999, -999, -999]	n/a	0	1	0	n/a	n/a	0.0	0	0	0	FR2	3	R1184M
3281.806	67.421	1939979	PROB	67.421	n/a	n/a	-999	0	22	[4, 8, 3]	14	0	1	0	n/a	n/a	0.0	0	0	0	FR2	3	R1184M
3349.227	0.009	1973687	STOP	n/a	n/a	n/a	-999	0	22	[-999, -999, -999]	n/a	0	1	0	n/a	n/a	0.0	0	0	0	FR2	3	R1184M
3349.236	1.15	1973691	DISTRACT_END	n/a	n/a	n/a	-999	0	22	[0, 0, 0]	n/a	0	1	0	n/a	n/a	0.0	0	0	0	FR2	3	R1184M
3350.386	0.636	1974266	REC_START	n/a	n/a	n/a	-999	0	22	[0, 0, 0]	n/a	0	1	0	n/a	n/a	0.0	0	0	0	FR2	3	R1184M
3351.022	0.783	1974584	REC_WORD	0.636	n/a	SEED	1	1	22	[0, 0, 0]	n/a	0	1	0	n/a	n/a	0.0	0	0	0	FR2	3	R1184M
3351.805	1.611	1974976	REC_WORD	1.419	n/a	MOON	6	1	22	[0, 0, 0]	n/a	0	1	0	n/a	n/a	0.0	0	0	0	FR2	3	R1184M
3353.416	0.417	1975781	REC_WORD	3.03	n/a	CHEEK	11	1	22	[0, 0, 0]	n/a	0	1	0	n/a	n/a	0.0	0	0	0	FR2	3	R1184M
3353.833	2.495	1975990	REC_WORD	3.447	n/a	CHAIR	12	1	22	[0, 0, 0]	n/a	0	1	0	n/a	n/a	0.0	0	0	0	FR2	3	R1184M
3356.328	6.507	1977237	REC_WORD	5.942	n/a	VINE	7	1	22	[0, 0, 0]	n/a	0	1	0	n/a	n/a	0.0	0	0	0	FR2	3	R1184M
3362.835	17.565	1980490	REC_WORD_VV	12.449	n/a	<>	-999	0	22	[0, 0, 0]	n/a	0	1	0	n/a	n/a	0.0	0	0	0	FR2	3	R1184M
3380.4	24.346	1989272	REC_END	n/a	n/a	n/a	-999	0	22	[0, 0, 0]	n/a	0	1	0	n/a	n/a	0.0	0	0	0	FR2	3	R1184M
3404.746	0.0	2001444	TRIAL	n/a	n/a	n/a	-999	0	23	[0, 0, 0]	n/a	0	0	0	n/a	n/a	0.0	0	0	0	FR2	3	R1184M
3404.746	10.0	2001444	COUNTDOWN_START	n/a	n/a	n/a	-999	0	23	[0, 0, 0]	n/a	0	0	0	n/a	n/a	0.0	0	0	0	FR2	3	R1184M
3415.174	0.024	2006658	COUNTDOWN_END	n/a	n/a	n/a	-999	0	23	[0, 0, 0]	n/a	0	0	0	n/a	n/a	0.0	0	0	0	FR2	3	R1184M
3415.198	1.6	2006670	ORIENT	n/a	n/a	n/a	-999	0	23	[0, 0, 0]	n/a	0	0	0	n/a	n/a	0.0	0	0	0	FR2	3	R1184M
3417.815	1.6	2007978	WORD	n/a	wordpools/wordpool_EN.txt	STEAK	1	1	23	[0, 0, 0]	n/a	0	0	0	n/a	n/a	0.0	0	0	0	FR2	3	R1184M
3420.366	1.6	2009254	WORD	n/a	wordpools/wordpool_EN.txt	STEAM	2	1	23	[0, 0, 0]	n/a	0	0	0	n/a	n/a	0.0	0	0	0	FR2	3	R1184M
3422.8	1.6	2010470	WORD	n/a	wordpools/wordpool_EN.txt	GOAT	3	1	23	[0, 0, 0]	n/a	0	0	0	n/a	n/a	0.0	0	0	0	FR2	3	R1184M
3425.284	1.6	2011712	WORD	n/a	wordpools/wordpool_EN.txt	ROOM	4	0	23	[0, 0, 0]	n/a	0	0	0	n/a	n/a	0.0	0	0	0	FR2	3	R1184M
3427.883	1.6	2013012	WORD	n/a	wordpools/wordpool_EN.txt	NAIL	5	0	23	[0, 0, 0]	n/a	0	0	0	n/a	n/a	0.0	0	0	0	FR2	3	R1184M
3430.468	1.6	2014304	WORD	n/a	wordpools/wordpool_EN.txt	SNAKE	6	0	23	[0, 0, 0]	n/a	0	0	0	n/a	n/a	0.0	0	0	0	FR2	3	R1184M
3432.901	1.6	2015520	WORD	n/a	wordpools/wordpool_EN.txt	FARM	7	1	23	[0, 0, 0]	n/a	0	0	0	n/a	n/a	0.0	0	0	0	FR2	3	R1184M
3435.319	1.6	2016729	WORD	n/a	wordpools/wordpool_EN.txt	HOOF	8	0	23	[0, 0, 0]	n/a	0	0	0	n/a	n/a	0.0	0	0	0	FR2	3	R1184M
3437.836	1.6	2017988	WORD	n/a	wordpools/wordpool_EN.txt	FRUIT	9	0	23	[0, 0, 0]	n/a	0	0	0	n/a	n/a	0.0	0	0	0	FR2	3	R1184M
3440.436	1.6	2019288	WORD	n/a	wordpools/wordpool_EN.txt	CROW	10	0	23	[0, 0, 0]	n/a	0	0	0	n/a	n/a	0.0	0	0	0	FR2	3	R1184M
3443.003	1.6	2020571	WORD	n/a	wordpools/wordpool_EN.txt	POND	11	0	23	[0, 0, 0]	n/a	0	0	0	n/a	n/a	0.0	0	0	0	FR2	3	R1184M
3445.454	1.6	2021796	WORD	n/a	wordpools/wordpool_EN.txt	HORN	12	0	23	[0, 0, 0]	n/a	0	0	0	n/a	n/a	0.0	0	0	0	FR2	3	R1184M
3447.071	0.001	2022605	DISTRACT_START	n/a	n/a	n/a	-999	0	23	[0, 0, 0]	n/a	0	0	0	n/a	n/a	0.0	0	0	0	FR2	3	R1184M
3447.072	0.016	2022605	START	n/a	n/a	n/a	-999	0	23	[-999, -999, -999]	n/a	0	0	0	n/a	n/a	0.0	0	0	0	FR2	3	R1184M
3447.088	20.435	2022613	PROB	20.435	n/a	n/a	-999	0	23	[1, 8, 2]	11	0	0	0	n/a	n/a	0.0	0	0	0	FR2	3	R1184M
3467.523	0.019	2032830	STOP	n/a	n/a	n/a	-999	0	23	[-999, -999, -999]	n/a	0	0	0	n/a	n/a	0.0	0	0	0	FR2	3	R1184M
3467.542	1.151	2032840	DISTRACT_END	n/a	n/a	n/a	-999	0	23	[0, 0, 0]	n/a	0	0	0	n/a	n/a	0.0	0	0	0	FR2	3	R1184M
3468.693	0.696	2033415	REC_START	n/a	n/a	n/a	-999	0	23	[0, 0, 0]	n/a	0	0	0	n/a	n/a	0.0	0	0	0	FR2	3	R1184M
3469.389	0.669	2033763	REC_WORD	0.696	n/a	STEAK	1	1	23	[0, 0, 0]	n/a	0	0	0	n/a	n/a	0.0	0	0	0	FR2	3	R1184M
3470.058	0.794	2034097	REC_WORD	1.365	n/a	GOAT	3	1	23	[0, 0, 0]	n/a	0	0	0	n/a	n/a	0.0	0	0	0	FR2	3	R1184M
3470.852	10.411	2034494	REC_WORD	2.159	n/a	FARM	7	1	23	[0, 0, 0]	n/a	0	0	0	n/a	n/a	0.0	0	0	0	FR2	3	R1184M
3481.263	17.439	2039700	REC_WORD	12.57	n/a	STEAM	2	1	23	[0, 0, 0]	n/a	0	0	0	n/a	n/a	0.0	0	0	0	FR2	3	R1184M
3498.702	34.752	2048418	REC_END	n/a	n/a	n/a	-999	0	23	[0, 0, 0]	n/a	0	0	0	n/a	n/a	0.0	0	0	0	FR2	3	R1184M
3533.454	10.0	2065793	COUNTDOWN_START	n/a	n/a	n/a	-999	0	24	[0, 0, 0]	n/a	0	1	0	n/a	n/a	0.0	0	0	0	FR2	3	R1184M
3533.455	10.427	2065793	TRIAL	n/a	n/a	n/a	-999	0	24	[0, 0, 0]	n/a	0	1	0	n/a	n/a	0.0	0	0	0	FR2	3	R1184M
3543.882	0.007	2071006	COUNTDOWN_END	n/a	n/a	n/a	-999	0	24	[0, 0, 0]	n/a	0	1	0	n/a	n/a	0.0	0	0	0	FR2	3	R1184M
3543.889	1.6	2071010	ORIENT	n/a	n/a	n/a	-999	0	24	[0, 0, 0]	n/a	0	1	0	n/a	n/a	0.0	0	0	0	FR2	3	R1184M
3546.374	1.6	2072252	WORD	n/a	wordpools/wordpool_EN.txt	EAR	1	1	24	[0, 0, 0]	n/a	0	1	0	n/a	n/a	0.0	0	0	0	FR2	3	R1184M
3548.956	1.6	2073543	WORD	n/a	wordpools/wordpool_EN.txt	HOSE	2	1	24	[0, 0, 0]	n/a	0	1	0	n/a	n/a	0.0	0	0	0	FR2	3	R1184M
3551.263	4.6	2074697	STIM_ON	n/a	n/a	n/a	-999	0	24	[0, 0, 0]	n/a	1	1	4600	RIPS3	RIPS4	750.0	50	230	300	FR2	3	R1184M
3551.475	1.6	2074803	WORD	n/a	wordpools/wordpool_EN.txt	BEE	3	1	24	[0, 0, 0]	n/a	1	1	4600	RIPS3	RIPS4	750.0	50	230	300	FR2	3	R1184M
3553.957	1.6	2076044	WORD	n/a	wordpools/wordpool_EN.txt	JAR	4	1	24	[0, 0, 0]	n/a	1	1	4600	RIPS3	RIPS4	750.0	50	230	300	FR2	3	R1184M
3556.476	1.6	2077303	WORD	n/a	wordpools/wordpool_EN.txt	DRESS	5	0	24	[0, 0, 0]	n/a	0	1	0	n/a	n/a	0.0	0	0	0	FR2	3	R1184M
3559.042	1.6	2078586	WORD	n/a	wordpools/wordpool_EN.txt	TOOL	6	0	24	[0, 0, 0]	n/a	0	1	0	n/a	n/a	0.0	0	0	0	FR2	3	R1184M
3561.311	4.6	2079720	STIM_ON	n/a	n/a	n/a	-999	0	24	[0, 0, 0]	n/a	1	1	4600	RIPS3	RIPS4	750.0	50	230	300	FR2	3	R1184M
3561.526	1.6	2079828	WORD	n/a	wordpools/wordpool_EN.txt	CAGE	7	1	24	[0, 0, 0]	n/a	1	1	4600	RIPS3	RIPS4	750.0	50	230	300	FR2	3	R1184M
3564.11	1.6	2081120	WORD	n/a	wordpools/wordpool_EN.txt	BRUSH	8	0	24	[0, 0, 0]	n/a	1	1	4600	RIPS3	RIPS4	750.0	50	230	300	FR2	3	R1184M
3566.577	1.6	2082353	WORD	n/a	wordpools/wordpool_EN.txt	SHIELD	9	0	24	[0, 0, 0]	n/a	0	1	0	n/a	n/a	0.0	0	0	0	FR2	3	R1184M
3568.994	1.6	2083561	WORD	n/a	wordpools/wordpool_EN.txt	CLIFF	10	0	24	[0, 0, 0]	n/a	0	1	0	n/a	n/a	0.0	0	0	0	FR2	3	R1184M
3571.22	4.6	2084674	STIM_ON	n/a	n/a	n/a	-999	0	24	[0, 0, 0]	n/a	1	1	4600	RIPS3	RIPS4	750.0	50	230	300	FR2	3	R1184M
3571.428	1.6	2084778	WORD	n/a	wordpools/wordpool_EN.txt	DART	11	0	24	[0, 0, 0]	n/a	1	1	4600	RIPS3	RIPS4	750.0	50	230	300	FR2	3	R1184M
3573.845	1.6	2085987	WORD	n/a	wordpools/wordpool_EN.txt	COW	12	0	24	[0, 0, 0]	n/a	1	1	4600	RIPS3	RIPS4	750.0	50	230	300	FR2	3	R1184M
3575.463	0.0	2086796	DISTRACT_START	n/a	n/a	n/a	-999	0	24	[0, 0, 0]	n/a	1	1	4600	RIPS3	RIPS4	750.0	50	230	300	FR2	3	R1184M
3575.463	0.016	2086796	START	n/a	n/a	n/a	-999	0	24	[-999, -999, -999]	n/a	0	1	0	n/a	n/a	0.0	0	0	0	FR2	3	R1184M
3575.479	27.395	2086804	PROB	27.395	n/a	n/a	-999	0	24	[5, 8, 9]	23	0	1	0	n/a	n/a	0.0	0	0	0	FR2	3	R1184M
3602.874	0.009	2100500	STOP	n/a	n/a	n/a	-999	0	24	[-999, -999, -999]	n/a	0	1	0	n/a	n/a	0.0	0	0	0	FR2	3	R1184M
3602.883	1.135	2100505	DISTRACT_END	n/a	n/a	n/a	-999	0	24	[0, 0, 0]	n/a	0	1	0	n/a	n/a	0.0	0	0	0	FR2	3	R1184M
3604.018	0.75	2101072	REC_START	n/a	n/a	n/a	-999	0	24	[0, 0, 0]	n/a	0	1	0	n/a	n/a	0.0	0	0	0	FR2	3	R1184M
3604.768	0.321	2101447	REC_WORD	0.75	n/a	EAR	1	1	24	[0, 0, 0]	n/a	0	1	0	n/a	n/a	0.0	0	0	0	FR2	3	R1184M
3605.089	2.016	2101607	REC_WORD	1.071	n/a	HOSE	2	1	24	[0, 0, 0]	n/a	0	1	0	n/a	n/a	0.0	0	0	0	FR2	3	R1184M
3607.105	0.93	2102615	REC_WORD	3.087	n/a	BEE	3	1	24	[0, 0, 0]	n/a	0	1	0	n/a	n/a	0.0	0	0	0	FR2	3	R1184M
3608.035	1.055	2103080	REC_WORD	4.017	n/a	JAR	4	1	24	[0, 0, 0]	n/a	0	1	0	n/a	n/a	0.0	0	0	0	FR2	3	R1184M
3609.09	24.936	2103608	REC_WORD	5.072	n/a	CAGE	7	1	24	[0, 0, 0]	n/a	0	1	0	n/a	n/a	0.0	0	0	0	FR2	3	R1184M
3634.026	10.417	2116075	REC_END	n/a	n/a	n/a	-999	0	24	[0, 0, 0]	n/a	0	1	0	n/a	n/a	0.0	0	0	0	FR2	3	R1184M
3644.443	0.0	2121283	TRIAL	n/a	n/a	n/a	-999	0	25	[0, 0, 0]	n/a	0	1	0	n/a	n/a	0.0	0	0	0	FR2	3	R1184M
3644.443	10.0	2121283	COUNTDOWN_START	n/a	n/a	n/a	-999	0	25	[0, 0, 0]	n/a	0	1	0	n/a	n/a	0.0	0	0	0	FR2	3	R1184M
3654.871	0.006	2126496	COUNTDOWN_END	n/a	n/a	n/a	-999	0	25	[0, 0, 0]	n/a	0	1	0	n/a	n/a	0.0	0	0	0	FR2	3	R1184M
3654.877	1.6	2126499	ORIENT	n/a	n/a	n/a	-999	0	25	[0, 0, 0]	n/a	0	1	0	n/a	n/a	0.0	0	0	0	FR2	3	R1184M
3657.287	4.6	2127704	STIM_ON	n/a	n/a	n/a	-999	0	25	[0, 0, 0]	n/a	1	1	4600	RIPS3	RIPS4	750.0	50	230	300	FR2	3	R1184M
3657.495	1.6	2127808	WORD	n/a	wordpools/wordpool_EN.txt	BAND	1	1	25	[0, 0, 0]	n/a	1	1	4600	RIPS3	RIPS4	750.0	50	230	300	FR2	3	R1184M
3660.011	1.6	2129066	WORD	n/a	wordpools/wordpool_EN.txt	TOOTH	2	1	25	[0, 0, 0]	n/a	1	1	4600	RIPS3	RIPS4	750.0	50	230	300	FR2	3	R1184M
3662.596	1.6	2130359	WORD	n/a	wordpools/wordpool_EN.txt	ZOO	3	0	25	[0, 0, 0]	n/a	0	1	0	n/a	n/a	0.0	0	0	0	FR2	3	R1184M
3665.113	1.6	2131617	WORD	n/a	wordpools/wordpool_EN.txt	CHIEF	4	1	25	[0, 0, 0]	n/a	0	1	0	n/a	n/a	0.0	0	0	0	FR2	3	R1184M
3667.37	4.6	2132745	STIM_ON	n/a	n/a	n/a	-999	0	25	[0, 0, 0]	n/a	1	1	4600	RIPS3	RIPS4	750.0	50	230	300	FR2	3	R1184M
3667.58	1.6	2132850	WORD	n/a	wordpools/wordpool_EN.txt	FENCE	5	0	25	[0, 0, 0]	n/a	1	1	4600	RIPS3	RIPS4	750.0	50	230	300	FR2	3	R1184M
3670.097	1.6	2134109	WORD	n/a	wordpools/wordpool_EN.txt	BALL	6	0	25	[0, 0, 0]	n/a	1	1	4600	RIPS3	RIPS4	750.0	50	230	300	FR2	3	R1184M
3672.665	1.6	2135393	WORD	n/a	wordpools/wordpool_EN.txt	FUR	7	0	25	[0, 0, 0]	n/a	0	1	0	n/a	n/a	0.0	0	0	0	FR2	3	R1184M
3675.282	1.6	2136701	WORD	n/a	wordpools/wordpool_EN.txt	ARK	8	0	25	[0, 0, 0]	n/a	0	1	0	n/a	n/a	0.0	0	0	0	FR2	3	R1184M
3677.514	4.6	2137817	STIM_ON	n/a	n/a	n/a	-999	0	25	[0, 0, 0]	n/a	1	1	4600	RIPS3	RIPS4	750.0	50	230	300	FR2	3	R1184M
3677.732	1.6	2137926	WORD	n/a	wordpools/wordpool_EN.txt	INK	9	0	25	[0, 0, 0]	n/a	1	1	4600	RIPS3	RIPS4	750.0	50	230	300	FR2	3	R1184M
3680.149	1.6	2139134	WORD	n/a	wordpools/wordpool_EN.txt	MOTH	10	1	25	[0, 0, 0]	n/a	1	1	4600	RIPS3	RIPS4	750.0	50	230	300	FR2	3	R1184M
3682.683	1.6	2140401	WORD	n/a	wordpools/wordpool_EN.txt	BADGE	11	0	25	[0, 0, 0]	n/a	0	1	0	n/a	n/a	0.0	0	0	0	FR2	3	R1184M
3685.117	1.6	2141618	WORD	n/a	wordpools/wordpool_EN.txt	SWORD	12	0	25	[0, 0, 0]	n/a	0	1	0	n/a	n/a	0.0	0	0	0	FR2	3	R1184M
3686.734	0.001	2142427	DISTRACT_START	n/a	n/a	n/a	-999	0	25	[0, 0, 0]	n/a	0	1	0	n/a	n/a	0.0	0	0	0	FR2	3	R1184M
3686.735	0.016	2142427	START	n/a	n/a	n/a	-999	0	25	[-999, -999, -999]	n/a	0	1	0	n/a	n/a	0.0	0	0	0	FR2	3	R1184M
3686.751	43.956	2142435	PROB	43.956	n/a	n/a	-999	0	25	[4, 9, 7]	22	0	1	0	n/a	n/a	0.0	0	0	0	FR2	3	R1184M
3730.707	0.019	2164411	STOP	n/a	n/a	n/a	-999	0	25	[-999, -999, -999]	n/a	0	1	0	n/a	n/a	0.0	0	0	0	FR2	3	R1184M
3730.726	1.034	2164421	DISTRACT_END	n/a	n/a	n/a	-999	0	25	[0, 0, 0]	n/a	0	1	0	n/a	n/a	0.0	0	0	0	FR2	3	R1184M
3731.76	0.4	2164938	REC_START	n/a	n/a	n/a	-999	0	25	[0, 0, 0]	n/a	0	1	0	n/a	n/a	0.0	0	0	0	FR2	3	R1184M
3732.16	0.378	2165138	REC_WORD	0.4	n/a	BAND	1	1	25	[0, 0, 0]	n/a	0	1	0	n/a	n/a	0.0	0	0	0	FR2	3	R1184M
3732.538	0.386	2165327	REC_WORD	0.778	n/a	TOOTH	2	1	25	[0, 0, 0]	n/a	0	1	0	n/a	n/a	0.0	0	0	0	FR2	3	R1184M
3732.924	1.555	2165520	REC_WORD	1.164	n/a	CHIEF	4	1	25	[0, 0, 0]	n/a	0	1	0	n/a	n/a	0.0	0	0	0	FR2	3	R1184M
3734.479	2.164	2166297	REC_WORD	2.719	n/a	TOOL	-999	0	25	[0, 0, 0]	n/a	0	1	0	n/a	n/a	0.0	0	0	0	FR2	3	R1184M
3736.643	25.126	2167379	REC_WORD	4.883	n/a	MOTH	10	1	25	[0, 0, 0]	n/a	0	1	0	n/a	n/a	0.0	0	0	0	FR2	3	R1184M
3761.769	32.202	2179941	REC_END	n/a	n/a	n/a	-999	0	25	[0, 0, 0]	n/a	0	1	0	n/a	n/a	0.0	0	0	0	FR2	3	R1184M
3793.971	0.0	2196041	SESS_END	n/a	n/a	n/a	-999	0	25	[0, 0, 0]	n/a	0	1	0	n/a	n/a	0.0	0	0	0	FR2	3	R1184M
