onset	duration	sample	trial_type	response_time	stim_file	item_name	serialpos	list	test	answer	stimulation	stim_list	stim_duration	anode_label	cathode_label	amplitude	pulse_freq	n_pulses	pulse_width	experiment	session	subject
0.0	67.418	59386	SESS_START	n/a	n/a	n/a	-999	-999	[0, 0, 0]	n/a	0	0	0	n/a	n/a	0.0	0	0	0	FR2	0	R1074M
67.418	10.0	93093	COUNTDOWN_START	n/a	n/a	n/a	-999	-999	[0, 0, 0]	n/a	0	0	0	n/a	n/a	0.0	0	0	0	FR2	0	R1074M
77.846	3.575	98307	COUNTDOWN_END	n/a	n/a	n/a	-999	-999	[0, 0, 0]	n/a	0	0	0	n/a	n/a	0.0	0	0	0	FR2	0	R1074M
81.421	1.6	100095	PRACTICE_WORD	n/a	n/a	IRON	1	-1	[0, 0, 0]	n/a	0	0	0	n/a	n/a	0.0	0	0	0	FR2	0	R1074M
83.855	1.6	101311	PRACTICE_WORD	n/a	n/a	TONGUE	2	-1	[0, 0, 0]	n/a	0	0	0	n/a	n/a	0.0	0	0	0	FR2	0	R1074M
86.372	1.6	102570	PRACTICE_WORD	n/a	n/a	WATCH	3	-1	[0, 0, 0]	n/a	0	0	0	n/a	n/a	0.0	0	0	0	FR2	0	R1074M
88.906	1.6	103837	PRACTICE_WORD	n/a	n/a	CAMEL	4	-1	[0, 0, 0]	n/a	0	0	0	n/a	n/a	0.0	0	0	0	FR2	0	R1074M
91.373	1.6	105070	PRACTICE_WORD	n/a	n/a	RING	5	-1	[0, 0, 0]	n/a	0	0	0	n/a	n/a	0.0	0	0	0	FR2	0	R1074M
93.807	1.6	106287	PRACTICE_WORD	n/a	n/a	WAGON	6	-1	[0, 0, 0]	n/a	0	0	0	n/a	n/a	0.0	0	0	0	FR2	0	R1074M
96.19	1.6	107479	PRACTICE_WORD	n/a	n/a	ATTIC	7	-1	[0, 0, 0]	n/a	0	0	0	n/a	n/a	0.0	0	0	0	FR2	0	R1074M
98.757	1.6	108762	PRACTICE_WORD	n/a	n/a	RHINO	8	-1	[0, 0, 0]	n/a	0	0	0	n/a	n/a	0.0	0	0	0	FR2	0	R1074M
101.141	1.6	109954	PRACTICE_WORD	n/a	n/a	FLOOD	9	-1	[0, 0, 0]	n/a	0	0	0	n/a	n/a	0.0	0	0	0	FR2	0	R1074M
103.609	1.6	111188	PRACTICE_WORD	n/a	n/a	CHEST	10	-1	[0, 0, 0]	n/a	0	0	0	n/a	n/a	0.0	0	0	0	FR2	0	R1074M
106.092	1.6	112429	PRACTICE_WORD	n/a	n/a	BEAM	11	-1	[0, 0, 0]	n/a	0	0	0	n/a	n/a	0.0	0	0	0	FR2	0	R1074M
108.594	1.6	113680	PRACTICE_WORD	n/a	n/a	COTTON	12	-1	[0, 0, 0]	n/a	0	0	0	n/a	n/a	0.0	0	0	0	FR2	0	R1074M
110.21	0.0	114488	PRACTICE_DISTRACT_START	n/a	n/a	n/a	-999	-1	[0, 0, 0]	n/a	0	0	0	n/a	n/a	0.0	0	0	0	FR2	0	R1074M
110.21	0.016	114488	START	n/a	n/a	n/a	-999	-1	[-999, -999, -999]	n/a	0	0	0	n/a	n/a	0.0	0	0	0	FR2	0	R1074M
110.226	21.25	114496	PROB	21.25	n/a	n/a	-999	-1	[5, 8, 5]	18	0	0	0	n/a	n/a	0.0	0	0	0	FR2	0	R1074M
131.476	0.005	125121	STOP	n/a	n/a	n/a	-999	-1	[-999, -999, -999]	n/a	0	0	0	n/a	n/a	0.0	0	0	0	FR2	0	R1074M
131.481	0.651	125123	PRACTICE_DISTRACT_END	n/a	n/a	n/a	-999	-1	[0, 0, 0]	n/a	0	0	0	n/a	n/a	0.0	0	0	0	FR2	0	R1074M
132.132	30.515	125449	PRACTICE_REC_START	n/a	n/a	n/a	-999	-1	[0, 0, 0]	n/a	0	0	0	n/a	n/a	0.0	0	0	0	FR2	0	R1074M
162.647	29.029	140705	PRACTICE_REC_END	n/a	n/a	n/a	-999	-1	[0, 0, 0]	n/a	0	0	0	n/a	n/a	0.0	0	0	0	FR2	0	R1074M
191.676	0.0	155219	TRIAL	n/a	n/a	n/a	-999	1	[0, 0, 0]	n/a	0	1	0	n/a	n/a	0.0	0	0	0	FR2	0	R1074M
191.676	10.0	155219	COUNTDOWN_START	n/a	n/a	n/a	-999	1	[0, 0, 0]	n/a	0	1	0	n/a	n/a	0.0	0	0	0	FR2	0	R1074M
202.104	0.007	160433	COUNTDOWN_END	n/a	n/a	n/a	-999	1	[0, 0, 0]	n/a	0	1	0	n/a	n/a	0.0	0	0	0	FR2	0	R1074M
202.111	1.6	160436	ORIENT	n/a	n/a	n/a	-999	1	[0, 0, 0]	n/a	0	1	0	n/a	n/a	0.0	0	0	0	FR2	0	R1074M
204.478	4.6	161620	STIM_ON	n/a	n/a	n/a	-999	1	[0, 0, 0]	n/a	1	1	4600	LX1	LX2	1000.0	50	230	300	FR2	0	R1074M
204.695	1.6	161728	WORD	n/a	wordpools/wordpool_EN.txt	TENT	1	1	[0, 0, 0]	n/a	1	1	4600	LX1	LX2	1000.0	50	230	300	FR2	0	R1074M
207.129	1.6	162945	WORD	n/a	wordpools/wordpool_EN.txt	SMILE	2	1	[0, 0, 0]	n/a	1	1	4600	LX1	LX2	1000.0	50	230	300	FR2	0	R1074M
209.645	1.6	164203	WORD	n/a	wordpools/wordpool_EN.txt	HEN	3	1	[0, 0, 0]	n/a	0	1	0	n/a	n/a	0.0	0	0	0	FR2	0	R1074M
212.246	1.6	165503	WORD	n/a	wordpools/wordpool_EN.txt	LEG	4	1	[0, 0, 0]	n/a	0	1	0	n/a	n/a	0.0	0	0	0	FR2	0	R1074M
214.59	4.6	166675	STIM_ON	n/a	n/a	n/a	-999	1	[0, 0, 0]	n/a	1	1	4600	LX1	LX2	1000.0	50	230	300	FR2	0	R1074M
214.797	1.6	166779	WORD	n/a	wordpools/wordpool_EN.txt	FACE	5	1	[0, 0, 0]	n/a	1	1	4600	LX1	LX2	1000.0	50	230	300	FR2	0	R1074M
217.314	1.6	168037	WORD	n/a	wordpools/wordpool_EN.txt	JET	6	1	[0, 0, 0]	n/a	1	1	4600	LX1	LX2	1000.0	50	230	300	FR2	0	R1074M
219.731	1.6	169246	WORD	n/a	wordpools/wordpool_EN.txt	BRICK	7	1	[0, 0, 0]	n/a	0	1	0	n/a	n/a	0.0	0	0	0	FR2	0	R1074M
222.248	1.6	170504	WORD	n/a	wordpools/wordpool_EN.txt	GRASS	8	1	[0, 0, 0]	n/a	0	1	0	n/a	n/a	0.0	0	0	0	FR2	0	R1074M
224.544	4.6	171652	STIM_ON	n/a	n/a	n/a	-999	1	[0, 0, 0]	n/a	1	1	4600	LX1	LX2	1000.0	50	230	300	FR2	0	R1074M
224.749	1.6	171755	WORD	n/a	wordpools/wordpool_EN.txt	ARM	9	1	[0, 0, 0]	n/a	1	1	4600	LX1	LX2	1000.0	50	230	300	FR2	0	R1074M
227.316	1.6	173038	WORD	n/a	wordpools/wordpool_EN.txt	STOOL	10	1	[0, 0, 0]	n/a	1	1	4600	LX1	LX2	1000.0	50	230	300	FR2	0	R1074M
229.766	1.6	174263	WORD	n/a	wordpools/wordpool_EN.txt	FLUTE	11	1	[0, 0, 0]	n/a	0	1	0	n/a	n/a	0.0	0	0	0	FR2	0	R1074M
232.167	1.6	175463	WORD	n/a	wordpools/wordpool_EN.txt	FILM	12	1	[0, 0, 0]	n/a	0	1	0	n/a	n/a	0.0	0	0	0	FR2	0	R1074M
233.784	0.001	176272	DISTRACT_START	n/a	n/a	n/a	-999	1	[0, 0, 0]	n/a	0	1	0	n/a	n/a	0.0	0	0	0	FR2	0	R1074M
233.785	0.016	176272	START	n/a	n/a	n/a	-999	1	[-999, -999, -999]	n/a	0	1	0	n/a	n/a	0.0	0	0	0	FR2	0	R1074M
233.801	7.735	176280	PROB	7.715	n/a	n/a	-999	1	[9, 4, 2]	15	0	1	0	n/a	n/a	0.0	0	0	0	FR2	0	R1074M
241.536	7.267	180148	PROB	7.243	n/a	n/a	-999	1	[9, 7, 9]	26	0	1	0	n/a	n/a	0.0	0	0	0	FR2	0	R1074M
248.803	6.777	183781	PROB	6.777	n/a	n/a	-999	1	[6, 8, 1]	15	0	1	0	n/a	n/a	0.0	0	0	0	FR2	0	R1074M
255.58	0.009	187169	STOP	n/a	n/a	n/a	-999	1	[-999, -999, -999]	n/a	0	1	0	n/a	n/a	0.0	0	0	0	FR2	0	R1074M
255.589	1.1	187174	DISTRACT_END	n/a	n/a	n/a	-999	1	[0, 0, 0]	n/a	0	1	0	n/a	n/a	0.0	0	0	0	FR2	0	R1074M
256.689	2.001	187724	REC_START	n/a	n/a	n/a	-999	1	[0, 0, 0]	n/a	0	1	0	n/a	n/a	0.0	0	0	0	FR2	0	R1074M
258.69	0.845	188724	REC_WORD	2.001	n/a	SMILE	-999	1	[0, 0, 0]	n/a	0	1	0	n/a	n/a	0.0	0	0	0	FR2	0	R1074M
259.535	2.947	189147	REC_WORD	2.846	n/a	BRICK	-999	1	[0, 0, 0]	n/a	0	1	0	n/a	n/a	0.0	0	0	0	FR2	0	R1074M
262.482	6.731	190620	REC_WORD	5.793	n/a	FLUTE	-999	1	[0, 0, 0]	n/a	0	1	0	n/a	n/a	0.0	0	0	0	FR2	0	R1074M
269.213	17.486	193985	REC_WORD	12.524	n/a	STOOL	-999	1	[0, 0, 0]	n/a	0	1	0	n/a	n/a	0.0	0	0	0	FR2	0	R1074M
286.699	7.213	202728	REC_END	n/a	n/a	n/a	-999	1	[0, 0, 0]	n/a	0	1	0	n/a	n/a	0.0	0	0	0	FR2	0	R1074M
293.912	0.0	206334	TRIAL	n/a	n/a	n/a	-999	2	[0, 0, 0]	n/a	0	1	0	n/a	n/a	0.0	0	0	0	FR2	0	R1074M
293.912	10.0	206334	COUNTDOWN_START	n/a	n/a	n/a	-999	2	[0, 0, 0]	n/a	0	1	0	n/a	n/a	0.0	0	0	0	FR2	0	R1074M
304.34	0.008	211548	COUNTDOWN_END	n/a	n/a	n/a	-999	2	[0, 0, 0]	n/a	0	1	0	n/a	n/a	0.0	0	0	0	FR2	0	R1074M
304.348	1.6	211552	ORIENT	n/a	n/a	n/a	-999	2	[0, 0, 0]	n/a	0	1	0	n/a	n/a	0.0	0	0	0	FR2	0	R1074M
306.748	1.6	212752	WORD	n/a	wordpools/wordpool_EN.txt	VAN	1	2	[0, 0, 0]	n/a	0	1	0	n/a	n/a	0.0	0	0	0	FR2	0	R1074M
309.165	1.6	213960	WORD	n/a	wordpools/wordpool_EN.txt	TRAY	2	2	[0, 0, 0]	n/a	0	1	0	n/a	n/a	0.0	0	0	0	FR2	0	R1074M
311.515	4.6	215135	STIM_ON	n/a	n/a	n/a	-999	2	[0, 0, 0]	n/a	1	1	4600	LX1	LX2	1000.0	50	230	300	FR2	0	R1074M
311.732	1.6	215244	WORD	n/a	wordpools/wordpool_EN.txt	MAP	3	2	[0, 0, 0]	n/a	1	1	4600	LX1	LX2	1000.0	50	230	300	FR2	0	R1074M
314.333	1.6	216544	WORD	n/a	wordpools/wordpool_EN.txt	GLOVE	4	2	[0, 0, 0]	n/a	1	1	4600	LX1	LX2	1000.0	50	230	300	FR2	0	R1074M
316.9	1.6	217827	WORD	n/a	wordpools/wordpool_EN.txt	SPONGE	5	2	[0, 0, 0]	n/a	0	1	0	n/a	n/a	0.0	0	0	0	FR2	0	R1074M
319.334	1.6	219044	WORD	n/a	wordpools/wordpool_EN.txt	SHEET	6	2	[0, 0, 0]	n/a	0	1	0	n/a	n/a	0.0	0	0	0	FR2	0	R1074M
321.622	4.6	220188	STIM_ON	n/a	n/a	n/a	-999	2	[0, 0, 0]	n/a	1	1	4600	LX1	LX2	1000.0	50	230	300	FR2	0	R1074M
321.834	1.6	220294	WORD	n/a	wordpools/wordpool_EN.txt	SLUSH	7	2	[0, 0, 0]	n/a	1	1	4600	LX1	LX2	1000.0	50	230	300	FR2	0	R1074M
324.285	1.6	221520	WORD	n/a	wordpools/wordpool_EN.txt	JAIL	8	2	[0, 0, 0]	n/a	1	1	4600	LX1	LX2	1000.0	50	230	300	FR2	0	R1074M
326.735	1.6	222745	WORD	n/a	wordpools/wordpool_EN.txt	SEAT	9	2	[0, 0, 0]	n/a	0	1	0	n/a	n/a	0.0	0	0	0	FR2	0	R1074M
329.319	1.6	224037	WORD	n/a	wordpools/wordpool_EN.txt	STREET	10	2	[0, 0, 0]	n/a	0	1	0	n/a	n/a	0.0	0	0	0	FR2	0	R1074M
331.564	4.6	225159	STIM_ON	n/a	n/a	n/a	-999	2	[0, 0, 0]	n/a	1	1	4600	LX1	LX2	1000.0	50	230	300	FR2	0	R1074M
331.77	1.6	225262	WORD	n/a	wordpools/wordpool_EN.txt	TIE	11	2	[0, 0, 0]	n/a	1	1	4600	LX1	LX2	1000.0	50	230	300	FR2	0	R1074M
334.337	1.6	226545	WORD	n/a	wordpools/wordpool_EN.txt	STICK	12	2	[0, 0, 0]	n/a	1	1	4600	LX1	LX2	1000.0	50	230	300	FR2	0	R1074M
335.954	0.001	227354	DISTRACT_START	n/a	n/a	n/a	-999	2	[0, 0, 0]	n/a	1	1	4600	LX1	LX2	1000.0	50	230	300	FR2	0	R1074M
335.955	0.015	227354	START	n/a	n/a	n/a	-999	2	[-999, -999, -999]	n/a	0	1	0	n/a	n/a	0.0	0	0	0	FR2	0	R1074M
335.97	7.486	227362	PROB	7.457	n/a	n/a	-999	2	[5, 5, 3]	12	0	1	0	n/a	n/a	0.0	0	0	0	FR2	0	R1074M
343.456	3.95	231105	PROB	3.923	n/a	n/a	-999	2	[4, 5, 1]	10	0	1	0	n/a	n/a	0.0	0	0	0	FR2	0	R1074M
347.406	6.635	233080	PROB	6.613	n/a	n/a	-999	2	[5, 3, 6]	14	0	1	0	n/a	n/a	0.0	0	0	0	FR2	0	R1074M
354.041	5.978	236397	PROB	5.978	n/a	n/a	-999	2	[2, 9, 8]	19	0	1	0	n/a	n/a	0.0	0	0	0	FR2	0	R1074M
360.019	0.006	239386	STOP	n/a	n/a	n/a	-999	2	[-999, -999, -999]	n/a	0	1	0	n/a	n/a	0.0	0	0	0	FR2	0	R1074M
360.025	1.051	239389	DISTRACT_END	n/a	n/a	n/a	-999	2	[0, 0, 0]	n/a	0	1	0	n/a	n/a	0.0	0	0	0	FR2	0	R1074M
361.076	2.355	239914	REC_START	n/a	n/a	n/a	-999	2	[0, 0, 0]	n/a	0	1	0	n/a	n/a	0.0	0	0	0	FR2	0	R1074M
363.431	0.58	241092	REC_WORD	2.355	n/a	SLUSH	-999	2	[0, 0, 0]	n/a	0	1	0	n/a	n/a	0.0	0	0	0	FR2	0	R1074M
364.011	9.894	241382	REC_WORD	2.935	n/a	STREET	-999	2	[0, 0, 0]	n/a	0	1	0	n/a	n/a	0.0	0	0	0	FR2	0	R1074M
373.905	16.524	246328	REC_WORD	12.829	n/a	SPONGE	-999	2	[0, 0, 0]	n/a	0	1	0	n/a	n/a	0.0	0	0	0	FR2	0	R1074M
390.429	0.658	254590	REC_WORD	29.353	n/a	GRASS	-999	2	[0, 0, 0]	n/a	0	1	0	n/a	n/a	0.0	0	0	0	FR2	0	R1074M
391.087	4.928	254919	REC_END	n/a	n/a	n/a	-999	2	[0, 0, 0]	n/a	0	1	0	n/a	n/a	0.0	0	0	0	FR2	0	R1074M
396.015	10.0	257383	COUNTDOWN_START	n/a	n/a	n/a	-999	3	[0, 0, 0]	n/a	0	1	0	n/a	n/a	0.0	0	0	0	FR2	0	R1074M
396.016	10.427	257383	TRIAL	n/a	n/a	n/a	-999	3	[0, 0, 0]	n/a	0	1	0	n/a	n/a	0.0	0	0	0	FR2	0	R1074M
406.443	0.009	262596	COUNTDOWN_END	n/a	n/a	n/a	-999	3	[0, 0, 0]	n/a	0	1	0	n/a	n/a	0.0	0	0	0	FR2	0	R1074M
406.452	1.6	262601	ORIENT	n/a	n/a	n/a	-999	3	[0, 0, 0]	n/a	0	1	0	n/a	n/a	0.0	0	0	0	FR2	0	R1074M
408.718	4.6	263734	STIM_ON	n/a	n/a	n/a	-999	3	[0, 0, 0]	n/a	1	1	4600	LX1	LX2	1000.0	50	230	300	FR2	0	R1074M
408.934	1.6	263842	WORD	n/a	wordpools/wordpool_EN.txt	DEER	1	3	[0, 0, 0]	n/a	1	1	4600	LX1	LX2	1000.0	50	230	300	FR2	0	R1074M
411.418	1.6	265084	WORD	n/a	wordpools/wordpool_EN.txt	CUP	2	3	[0, 0, 0]	n/a	1	1	4600	LX1	LX2	1000.0	50	230	300	FR2	0	R1074M
413.835	1.6	266292	WORD	n/a	wordpools/wordpool_EN.txt	JUICE	3	3	[0, 0, 0]	n/a	0	1	0	n/a	n/a	0.0	0	0	0	FR2	0	R1074M
416.303	1.6	267526	WORD	n/a	wordpools/wordpool_EN.txt	WAND	4	3	[0, 0, 0]	n/a	0	1	0	n/a	n/a	0.0	0	0	0	FR2	0	R1074M
418.529	4.6	268639	STIM_ON	n/a	n/a	n/a	-999	3	[0, 0, 0]	n/a	1	1	4600	LX1	LX2	1000.0	50	230	300	FR2	0	R1074M
418.736	1.6	268743	WORD	n/a	wordpools/wordpool_EN.txt	GRAPE	5	3	[0, 0, 0]	n/a	1	1	4600	LX1	LX2	1000.0	50	230	300	FR2	0	R1074M
421.354	1.6	270052	WORD	n/a	wordpools/wordpool_EN.txt	CRANE	6	3	[0, 0, 0]	n/a	1	1	4600	LX1	LX2	1000.0	50	230	300	FR2	0	R1074M
423.754	1.6	271252	WORD	n/a	wordpools/wordpool_EN.txt	TOE	7	3	[0, 0, 0]	n/a	0	1	0	n/a	n/a	0.0	0	0	0	FR2	0	R1074M
426.305	1.6	272527	WORD	n/a	wordpools/wordpool_EN.txt	BANK	8	3	[0, 0, 0]	n/a	0	1	0	n/a	n/a	0.0	0	0	0	FR2	0	R1074M
428.658	4.6	273703	STIM_ON	n/a	n/a	n/a	-999	3	[0, 0, 0]	n/a	1	1	4600	LX1	LX2	1000.0	50	230	300	FR2	0	R1074M
428.872	1.6	273810	WORD	n/a	wordpools/wordpool_EN.txt	WALL	9	3	[0, 0, 0]	n/a	1	1	4600	LX1	LX2	1000.0	50	230	300	FR2	0	R1074M
431.389	1.6	275069	WORD	n/a	wordpools/wordpool_EN.txt	CLOWN	10	3	[0, 0, 0]	n/a	1	1	4600	LX1	LX2	1000.0	50	230	300	FR2	0	R1074M
433.856	1.6	276302	WORD	n/a	wordpools/wordpool_EN.txt	MAZE	11	3	[0, 0, 0]	n/a	0	1	0	n/a	n/a	0.0	0	0	0	FR2	0	R1074M
436.407	1.6	277578	WORD	n/a	wordpools/wordpool_EN.txt	PIE	12	3	[0, 0, 0]	n/a	0	1	0	n/a	n/a	0.0	0	0	0	FR2	0	R1074M
438.023	0.001	278386	DISTRACT_START	n/a	n/a	n/a	-999	3	[0, 0, 0]	n/a	0	1	0	n/a	n/a	0.0	0	0	0	FR2	0	R1074M
438.024	0.016	278386	START	n/a	n/a	n/a	-999	3	[-999, -999, -999]	n/a	0	1	0	n/a	n/a	0.0	0	0	0	FR2	0	R1074M
438.04	10.219	278394	PROB	10.195	n/a	n/a	-999	3	[4, 4, 9]	17	0	1	0	n/a	n/a	0.0	0	0	0	FR2	0	R1074M
448.259	3.05	283503	PROB	3.016	n/a	n/a	-999	3	[2, 7, 3]	12	0	1	0	n/a	n/a	0.0	0	0	0	FR2	0	R1074M
451.309	2.951	285028	PROB	2.926	n/a	n/a	-999	3	[1, 7, 3]	11	0	1	0	n/a	n/a	0.0	0	0	0	FR2	0	R1074M
454.26	2.65	286504	PROB	2.615	n/a	n/a	-999	3	[1, 9, 1]	11	0	1	0	n/a	n/a	0.0	0	0	0	FR2	0	R1074M
456.91	3.269	287829	PROB	3.269	n/a	n/a	-999	3	[2, 6, 3]	11	0	1	0	n/a	n/a	0.0	0	0	0	FR2	0	R1074M
460.179	0.015	289463	STOP	n/a	n/a	n/a	-999	3	[-999, -999, -999]	n/a	0	1	0	n/a	n/a	0.0	0	0	0	FR2	0	R1074M
460.194	1.168	289470	DISTRACT_END	n/a	n/a	n/a	-999	3	[0, 0, 0]	n/a	0	1	0	n/a	n/a	0.0	0	0	0	FR2	0	R1074M
461.362	1.318	290054	REC_START	n/a	n/a	n/a	-999	3	[0, 0, 0]	n/a	0	1	0	n/a	n/a	0.0	0	0	0	FR2	0	R1074M
462.68	0.524	290713	REC_WORD	1.318	n/a	CUP	-999	3	[0, 0, 0]	n/a	0	1	0	n/a	n/a	0.0	0	0	0	FR2	0	R1074M
463.204	28.168	290975	REC_WORD	1.842	n/a	DEER	-999	3	[0, 0, 0]	n/a	0	1	0	n/a	n/a	0.0	0	0	0	FR2	0	R1074M
491.372	7.863	305059	REC_END	n/a	n/a	n/a	-999	3	[0, 0, 0]	n/a	0	1	0	n/a	n/a	0.0	0	0	0	FR2	0	R1074M
499.235	10.0	308990	COUNTDOWN_START	n/a	n/a	n/a	-999	4	[0, 0, 0]	n/a	0	0	0	n/a	n/a	0.0	0	0	0	FR2	0	R1074M
499.236	10.427	308990	TRIAL	n/a	n/a	n/a	-999	4	[0, 0, 0]	n/a	0	0	0	n/a	n/a	0.0	0	0	0	FR2	0	R1074M
509.663	0.008	314204	COUNTDOWN_END	n/a	n/a	n/a	-999	4	[0, 0, 0]	n/a	0	0	0	n/a	n/a	0.0	0	0	0	FR2	0	R1074M
509.671	1.6	314208	ORIENT	n/a	n/a	n/a	-999	4	[0, 0, 0]	n/a	0	0	0	n/a	n/a	0.0	0	0	0	FR2	0	R1074M
512.204	1.6	315474	WORD	n/a	wordpools/wordpool_EN.txt	SEAL	1	4	[0, 0, 0]	n/a	0	0	0	n/a	n/a	0.0	0	0	0	FR2	0	R1074M
514.589	1.6	316666	WORD	n/a	wordpools/wordpool_EN.txt	WING	2	4	[0, 0, 0]	n/a	0	0	0	n/a	n/a	0.0	0	0	0	FR2	0	R1074M
517.172	1.6	317958	WORD	n/a	wordpools/wordpool_EN.txt	BED	3	4	[0, 0, 0]	n/a	0	0	0	n/a	n/a	0.0	0	0	0	FR2	0	R1074M
519.789	1.6	319266	WORD	n/a	wordpools/wordpool_EN.txt	PANTS	4	4	[0, 0, 0]	n/a	0	0	0	n/a	n/a	0.0	0	0	0	FR2	0	R1074M
522.173	1.6	320458	WORD	n/a	wordpools/wordpool_EN.txt	FOX	5	4	[0, 0, 0]	n/a	0	0	0	n/a	n/a	0.0	0	0	0	FR2	0	R1074M
524.724	1.6	321734	WORD	n/a	wordpools/wordpool_EN.txt	FLAME	6	4	[0, 0, 0]	n/a	0	0	0	n/a	n/a	0.0	0	0	0	FR2	0	R1074M
527.174	1.6	322959	WORD	n/a	wordpools/wordpool_EN.txt	SHRIMP	7	4	[0, 0, 0]	n/a	0	0	0	n/a	n/a	0.0	0	0	0	FR2	0	R1074M
529.559	1.6	324151	WORD	n/a	wordpools/wordpool_EN.txt	CAR	8	4	[0, 0, 0]	n/a	0	0	0	n/a	n/a	0.0	0	0	0	FR2	0	R1074M
532.092	1.6	325417	WORD	n/a	wordpools/wordpool_EN.txt	BOMB	9	4	[0, 0, 0]	n/a	0	0	0	n/a	n/a	0.0	0	0	0	FR2	0	R1074M
534.627	1.6	326685	WORD	n/a	wordpools/wordpool_EN.txt	STORM	10	4	[0, 0, 0]	n/a	0	0	0	n/a	n/a	0.0	0	0	0	FR2	0	R1074M
537.209	1.6	327976	WORD	n/a	wordpools/wordpool_EN.txt	PIPE	11	4	[0, 0, 0]	n/a	0	0	0	n/a	n/a	0.0	0	0	0	FR2	0	R1074M
539.693	1.6	329218	WORD	n/a	wordpools/wordpool_EN.txt	WORLD	12	4	[0, 0, 0]	n/a	0	0	0	n/a	n/a	0.0	0	0	0	FR2	0	R1074M
541.31	0.001	330026	DISTRACT_START	n/a	n/a	n/a	-999	4	[0, 0, 0]	n/a	0	0	0	n/a	n/a	0.0	0	0	0	FR2	0	R1074M
541.311	0.016	330027	START	n/a	n/a	n/a	-999	4	[-999, -999, -999]	n/a	0	0	0	n/a	n/a	0.0	0	0	0	FR2	0	R1074M
541.327	8.202	330035	PROB	8.181	n/a	n/a	-999	4	[8, 9, 5]	23	0	0	0	n/a	n/a	0.0	0	0	0	FR2	0	R1074M
549.529	7.701	334136	PROB	7.674	n/a	n/a	-999	4	[4, 5, 4]	13	0	0	0	n/a	n/a	0.0	0	0	0	FR2	0	R1074M
557.23	4.334	337986	PROB	4.334	n/a	n/a	-999	4	[1, 2, 4]	7	0	0	0	n/a	n/a	0.0	0	0	0	FR2	0	R1074M
561.564	0.018	340153	STOP	n/a	n/a	n/a	-999	4	[-999, -999, -999]	n/a	0	0	0	n/a	n/a	0.0	0	0	0	FR2	0	R1074M
561.582	1.216	340162	DISTRACT_END	n/a	n/a	n/a	-999	4	[0, 0, 0]	n/a	0	0	0	n/a	n/a	0.0	0	0	0	FR2	0	R1074M
562.798	4.862	340770	REC_START	n/a	n/a	n/a	-999	4	[0, 0, 0]	n/a	0	0	0	n/a	n/a	0.0	0	0	0	FR2	0	R1074M
567.66	3.839	343200	REC_WORD	4.862	n/a	PIPE	-999	4	[0, 0, 0]	n/a	0	0	0	n/a	n/a	0.0	0	0	0	FR2	0	R1074M
571.499	21.309	345120	REC_WORD	8.701	n/a	CAR	-999	4	[0, 0, 0]	n/a	0	0	0	n/a	n/a	0.0	0	0	0	FR2	0	R1074M
592.808	11.148	355774	REC_END	n/a	n/a	n/a	-999	4	[0, 0, 0]	n/a	0	0	0	n/a	n/a	0.0	0	0	0	FR2	0	R1074M
603.956	0.0	361347	TRIAL	n/a	n/a	n/a	-999	5	[0, 0, 0]	n/a	0	0	0	n/a	n/a	0.0	0	0	0	FR2	0	R1074M
603.956	10.0	361347	COUNTDOWN_START	n/a	n/a	n/a	-999	5	[0, 0, 0]	n/a	0	0	0	n/a	n/a	0.0	0	0	0	FR2	0	R1074M
614.384	0.007	366561	COUNTDOWN_END	n/a	n/a	n/a	-999	5	[0, 0, 0]	n/a	0	0	0	n/a	n/a	0.0	0	0	0	FR2	0	R1074M
614.391	1.6	366565	ORIENT	n/a	n/a	n/a	-999	5	[0, 0, 0]	n/a	0	0	0	n/a	n/a	0.0	0	0	0	FR2	0	R1074M
616.891	1.6	367815	WORD	n/a	wordpools/wordpool_EN.txt	RAT	1	5	[0, 0, 0]	n/a	0	0	0	n/a	n/a	0.0	0	0	0	FR2	0	R1074M
619.493	1.6	369116	WORD	n/a	wordpools/wordpool_EN.txt	FORK	2	5	[0, 0, 0]	n/a	0	0	0	n/a	n/a	0.0	0	0	0	FR2	0	R1074M
622.109	1.6	370423	WORD	n/a	wordpools/wordpool_EN.txt	FLEA	3	5	[0, 0, 0]	n/a	0	0	0	n/a	n/a	0.0	0	0	0	FR2	0	R1074M
624.561	1.6	371649	WORD	n/a	wordpools/wordpool_EN.txt	SNAIL	4	5	[0, 0, 0]	n/a	0	0	0	n/a	n/a	0.0	0	0	0	FR2	0	R1074M
627.127	1.6	372932	WORD	n/a	wordpools/wordpool_EN.txt	CLOCK	5	5	[0, 0, 0]	n/a	0	0	0	n/a	n/a	0.0	0	0	0	FR2	0	R1074M
629.595	1.6	374166	WORD	n/a	wordpools/wordpool_EN.txt	ROCK	6	5	[0, 0, 0]	n/a	0	0	0	n/a	n/a	0.0	0	0	0	FR2	0	R1074M
632.078	1.6	375408	WORD	n/a	wordpools/wordpool_EN.txt	PASTE	7	5	[0, 0, 0]	n/a	0	0	0	n/a	n/a	0.0	0	0	0	FR2	0	R1074M
634.563	1.6	376650	WORD	n/a	wordpools/wordpool_EN.txt	DUCK	8	5	[0, 0, 0]	n/a	0	0	0	n/a	n/a	0.0	0	0	0	FR2	0	R1074M
636.962	1.6	377850	WORD	n/a	wordpools/wordpool_EN.txt	PIG	9	5	[0, 0, 0]	n/a	0	0	0	n/a	n/a	0.0	0	0	0	FR2	0	R1074M
639.53	1.6	379133	WORD	n/a	wordpools/wordpool_EN.txt	CALF	10	5	[0, 0, 0]	n/a	0	0	0	n/a	n/a	0.0	0	0	0	FR2	0	R1074M
641.913	1.6	380325	WORD	n/a	wordpools/wordpool_EN.txt	CAVE	11	5	[0, 0, 0]	n/a	0	0	0	n/a	n/a	0.0	0	0	0	FR2	0	R1074M
644.481	1.6	381609	WORD	n/a	wordpools/wordpool_EN.txt	TOY	12	5	[0, 0, 0]	n/a	0	0	0	n/a	n/a	0.0	0	0	0	FR2	0	R1074M
646.097	0.001	382417	DISTRACT_START	n/a	n/a	n/a	-999	5	[0, 0, 0]	n/a	0	0	0	n/a	n/a	0.0	0	0	0	FR2	0	R1074M
646.098	0.016	382417	START	n/a	n/a	n/a	-999	5	[-999, -999, -999]	n/a	0	0	0	n/a	n/a	0.0	0	0	0	FR2	0	R1074M
646.114	18.537	382425	PROB	18.514	n/a	n/a	-999	5	[9, 7, 9]	26	0	0	0	n/a	n/a	0.0	0	0	0	FR2	0	R1074M
664.651	3.76	391693	PROB	3.76	n/a	n/a	-999	5	[5, 1, 3]	9	0	0	0	n/a	n/a	0.0	0	0	0	FR2	0	R1074M
668.411	0.007	393573	STOP	n/a	n/a	n/a	-999	5	[-999, -999, -999]	n/a	0	0	0	n/a	n/a	0.0	0	0	0	FR2	0	R1074M
668.418	1.052	393577	DISTRACT_END	n/a	n/a	n/a	-999	5	[0, 0, 0]	n/a	0	0	0	n/a	n/a	0.0	0	0	0	FR2	0	R1074M
669.47	1.916	394103	REC_START	n/a	n/a	n/a	-999	5	[0, 0, 0]	n/a	0	0	0	n/a	n/a	0.0	0	0	0	FR2	0	R1074M
671.386	0.814	395061	REC_WORD	1.916	n/a	SEAL	-999	5	[0, 0, 0]	n/a	0	0	0	n/a	n/a	0.0	0	0	0	FR2	0	R1074M
672.2	0.487	395468	REC_WORD	2.73	n/a	RAT	-999	5	[0, 0, 0]	n/a	0	0	0	n/a	n/a	0.0	0	0	0	FR2	0	R1074M
672.687	26.793	395711	REC_WORD	3.217	n/a	FORK	-999	5	[0, 0, 0]	n/a	0	0	0	n/a	n/a	0.0	0	0	0	FR2	0	R1074M
699.48	6.529	409107	REC_END	n/a	n/a	n/a	-999	5	[0, 0, 0]	n/a	0	0	0	n/a	n/a	0.0	0	0	0	FR2	0	R1074M
706.009	0.0	412371	TRIAL	n/a	n/a	n/a	-999	6	[0, 0, 0]	n/a	0	1	0	n/a	n/a	0.0	0	0	0	FR2	0	R1074M
706.009	10.0	412371	COUNTDOWN_START	n/a	n/a	n/a	-999	6	[0, 0, 0]	n/a	0	1	0	n/a	n/a	0.0	0	0	0	FR2	0	R1074M
716.437	0.008	417585	COUNTDOWN_END	n/a	n/a	n/a	-999	6	[0, 0, 0]	n/a	0	1	0	n/a	n/a	0.0	0	0	0	FR2	0	R1074M
716.445	1.6	417589	ORIENT	n/a	n/a	n/a	-999	6	[0, 0, 0]	n/a	0	1	0	n/a	n/a	0.0	0	0	0	FR2	0	R1074M
719.045	1.6	418889	WORD	n/a	wordpools/wordpool_EN.txt	BEAR	1	6	[0, 0, 0]	n/a	0	1	0	n/a	n/a	0.0	0	0	0	FR2	0	R1074M
721.613	1.6	420173	WORD	n/a	wordpools/wordpool_EN.txt	SHOE	2	6	[0, 0, 0]	n/a	0	1	0	n/a	n/a	0.0	0	0	0	FR2	0	R1074M
723.857	4.6	421295	STIM_ON	n/a	n/a	n/a	-999	6	[0, 0, 0]	n/a	1	1	4600	LX1	LX2	1000.0	50	230	300	FR2	0	R1074M
724.062	1.6	421397	WORD	n/a	wordpools/wordpool_EN.txt	SMOKE	3	6	[0, 0, 0]	n/a	1	1	4600	LX1	LX2	1000.0	50	230	300	FR2	0	R1074M
726.63	1.6	422681	WORD	n/a	wordpools/wordpool_EN.txt	HORSE	4	6	[0, 0, 0]	n/a	1	1	4600	LX1	LX2	1000.0	50	230	300	FR2	0	R1074M
729.247	1.6	423989	WORD	n/a	wordpools/wordpool_EN.txt	STEM	5	6	[0, 0, 0]	n/a	0	1	0	n/a	n/a	0.0	0	0	0	FR2	0	R1074M
731.73	1.6	425231	WORD	n/a	wordpools/wordpool_EN.txt	SAIL	6	6	[0, 0, 0]	n/a	0	1	0	n/a	n/a	0.0	0	0	0	FR2	0	R1074M
734.002	4.6	426367	STIM_ON	n/a	n/a	n/a	-999	6	[0, 0, 0]	n/a	1	1	4600	LX1	LX2	1000.0	50	230	300	FR2	0	R1074M
734.214	1.6	426473	WORD	n/a	wordpools/wordpool_EN.txt	TEETH	7	6	[0, 0, 0]	n/a	1	1	4600	LX1	LX2	1000.0	50	230	300	FR2	0	R1074M
736.599	1.6	427665	WORD	n/a	wordpools/wordpool_EN.txt	BLUSH	8	6	[0, 0, 0]	n/a	1	1	4600	LX1	LX2	1000.0	50	230	300	FR2	0	R1074M
739.182	1.6	428957	WORD	n/a	wordpools/wordpool_EN.txt	PET	9	6	[0, 0, 0]	n/a	0	1	0	n/a	n/a	0.0	0	0	0	FR2	0	R1074M
741.617	1.6	430174	WORD	n/a	wordpools/wordpool_EN.txt	HOUSE	10	6	[0, 0, 0]	n/a	0	1	0	n/a	n/a	0.0	0	0	0	FR2	0	R1074M
743.886	4.6	431309	STIM_ON	n/a	n/a	n/a	-999	6	[0, 0, 0]	n/a	1	1	4600	LX1	LX2	1000.0	50	230	300	FR2	0	R1074M
744.099	1.6	431415	WORD	n/a	wordpools/wordpool_EN.txt	PRINCE	11	6	[0, 0, 0]	n/a	1	1	4600	LX1	LX2	1000.0	50	230	300	FR2	0	R1074M
746.584	1.6	432658	WORD	n/a	wordpools/wordpool_EN.txt	BOY	12	6	[0, 0, 0]	n/a	1	1	4600	LX1	LX2	1000.0	50	230	300	FR2	0	R1074M
748.2	0.001	433465	DISTRACT_START	n/a	n/a	n/a	-999	6	[0, 0, 0]	n/a	1	1	4600	LX1	LX2	1000.0	50	230	300	FR2	0	R1074M
748.201	0.016	433466	START	n/a	n/a	n/a	-999	6	[-999, -999, -999]	n/a	0	1	0	n/a	n/a	0.0	0	0	0	FR2	0	R1074M
748.217	10.236	433474	PROB	10.202	n/a	n/a	-999	6	[6, 9, 5]	20	0	1	0	n/a	n/a	0.0	0	0	0	FR2	0	R1074M
758.453	10.446	438592	PROB	10.446	n/a	n/a	-999	6	[8, 6, 7]	21	0	1	0	n/a	n/a	0.0	0	0	0	FR2	0	R1074M
768.899	0.005	443814	STOP	n/a	n/a	n/a	-999	6	[-999, -999, -999]	n/a	0	1	0	n/a	n/a	0.0	0	0	0	FR2	0	R1074M
768.904	1.051	443817	DISTRACT_END	n/a	n/a	n/a	-999	6	[0, 0, 0]	n/a	0	1	0	n/a	n/a	0.0	0	0	0	FR2	0	R1074M
769.955	7.423	444342	REC_START	n/a	n/a	n/a	-999	6	[0, 0, 0]	n/a	0	1	0	n/a	n/a	0.0	0	0	0	FR2	0	R1074M
777.378	22.587	448054	REC_WORD	7.423	n/a	BEAR	-999	6	[0, 0, 0]	n/a	0	1	0	n/a	n/a	0.0	0	0	0	FR2	0	R1074M
799.965	5.996	459347	REC_END	n/a	n/a	n/a	-999	6	[0, 0, 0]	n/a	0	1	0	n/a	n/a	0.0	0	0	0	FR2	0	R1074M
805.961	10.0	462344	COUNTDOWN_START	n/a	n/a	n/a	-999	7	[0, 0, 0]	n/a	0	1	0	n/a	n/a	0.0	0	0	0	FR2	0	R1074M
805.962	10.427	462345	TRIAL	n/a	n/a	n/a	-999	7	[0, 0, 0]	n/a	0	1	0	n/a	n/a	0.0	0	0	0	FR2	0	R1074M
816.389	0.008	467558	COUNTDOWN_END	n/a	n/a	n/a	-999	7	[0, 0, 0]	n/a	0	1	0	n/a	n/a	0.0	0	0	0	FR2	0	R1074M
816.397	1.6	467562	ORIENT	n/a	n/a	n/a	-999	7	[0, 0, 0]	n/a	0	1	0	n/a	n/a	0.0	0	0	0	FR2	0	R1074M
818.636	4.6	468681	STIM_ON	n/a	n/a	n/a	-999	7	[0, 0, 0]	n/a	1	1	4600	LX1	LX2	1000.0	50	230	300	FR2	0	R1074M
818.847	1.6	468787	WORD	n/a	wordpools/wordpool_EN.txt	PEN	1	7	[0, 0, 0]	n/a	1	1	4600	LX1	LX2	1000.0	50	230	300	FR2	0	R1074M
821.431	1.6	470079	WORD	n/a	wordpools/wordpool_EN.txt	SHEEP	2	7	[0, 0, 0]	n/a	1	1	4600	LX1	LX2	1000.0	50	230	300	FR2	0	R1074M
823.815	1.6	471271	WORD	n/a	wordpools/wordpool_EN.txt	BOOK	3	7	[0, 0, 0]	n/a	0	1	0	n/a	n/a	0.0	0	0	0	FR2	0	R1074M
826.198	1.6	472462	WORD	n/a	wordpools/wordpool_EN.txt	SKY	4	7	[0, 0, 0]	n/a	0	1	0	n/a	n/a	0.0	0	0	0	FR2	0	R1074M
828.407	4.6	473567	STIM_ON	n/a	n/a	n/a	-999	7	[0, 0, 0]	n/a	1	1	4600	LX1	LX2	1000.0	50	230	300	FR2	0	R1074M
828.617	1.6	473672	WORD	n/a	wordpools/wordpool_EN.txt	FLAG	5	7	[0, 0, 0]	n/a	1	1	4600	LX1	LX2	1000.0	50	230	300	FR2	0	R1074M
831.233	1.6	474980	WORD	n/a	wordpools/wordpool_EN.txt	STAIR	6	7	[0, 0, 0]	n/a	1	1	4600	LX1	LX2	1000.0	50	230	300	FR2	0	R1074M
833.65	1.6	476188	WORD	n/a	wordpools/wordpool_EN.txt	FUDGE	7	7	[0, 0, 0]	n/a	0	1	0	n/a	n/a	0.0	0	0	0	FR2	0	R1074M
836.117	1.6	477422	WORD	n/a	wordpools/wordpool_EN.txt	HAND	8	7	[0, 0, 0]	n/a	0	1	0	n/a	n/a	0.0	0	0	0	FR2	0	R1074M
838.356	4.6	478541	STIM_ON	n/a	n/a	n/a	-999	7	[0, 0, 0]	n/a	1	1	4600	LX1	LX2	1000.0	50	230	300	FR2	0	R1074M
838.569	1.6	478647	WORD	n/a	wordpools/wordpool_EN.txt	CLAY	9	7	[0, 0, 0]	n/a	1	1	4600	LX1	LX2	1000.0	50	230	300	FR2	0	R1074M
840.968	1.6	479847	WORD	n/a	wordpools/wordpool_EN.txt	DOLL	10	7	[0, 0, 0]	n/a	1	1	4600	LX1	LX2	1000.0	50	230	300	FR2	0	R1074M
843.369	1.6	481047	WORD	n/a	wordpools/wordpool_EN.txt	BROOM	11	7	[0, 0, 0]	n/a	0	1	0	n/a	n/a	0.0	0	0	0	FR2	0	R1074M
845.919	1.6	482322	WORD	n/a	wordpools/wordpool_EN.txt	FORT	12	7	[0, 0, 0]	n/a	0	1	0	n/a	n/a	0.0	0	0	0	FR2	0	R1074M
847.52	0.001	483123	DISTRACT_START	n/a	n/a	n/a	-999	7	[0, 0, 0]	n/a	0	1	0	n/a	n/a	0.0	0	0	0	FR2	0	R1074M
847.521	0.016	483123	START	n/a	n/a	n/a	-999	7	[-999, -999, -999]	n/a	0	1	0	n/a	n/a	0.0	0	0	0	FR2	0	R1074M
847.537	5.267	483131	PROB	5.242	n/a	n/a	-999	7	[2, 9, 4]	15	0	1	0	n/a	n/a	0.0	0	0	0	FR2	0	R1074M
852.804	7.285	485765	PROB	7.255	n/a	n/a	-999	7	[8, 8, 7]	23	0	1	0	n/a	n/a	0.0	0	0	0	FR2	0	R1074M
860.089	3.85	489407	PROB	3.826	n/a	n/a	-999	7	[3, 3, 2]	8	0	1	0	n/a	n/a	0.0	0	0	0	FR2	0	R1074M
863.939	10.784	491332	PROB	10.784	n/a	n/a	-999	7	[7, 9, 8]	25	0	1	0	n/a	n/a	0.0	0	0	0	FR2	0	R1074M
874.723	0.018	496723	STOP	n/a	n/a	n/a	-999	7	[-999, -999, -999]	n/a	0	1	0	n/a	n/a	0.0	0	0	0	FR2	0	R1074M
874.741	1.068	496732	DISTRACT_END	n/a	n/a	n/a	-999	7	[0, 0, 0]	n/a	0	1	0	n/a	n/a	0.0	0	0	0	FR2	0	R1074M
875.809	2.885	497266	REC_START	n/a	n/a	n/a	-999	7	[0, 0, 0]	n/a	0	1	0	n/a	n/a	0.0	0	0	0	FR2	0	R1074M
878.694	0.654	498709	REC_WORD	2.885	n/a	PEN	-999	7	[0, 0, 0]	n/a	0	1	0	n/a	n/a	0.0	0	0	0	FR2	0	R1074M
879.348	2.166	499036	REC_WORD	3.539	n/a	BROOM	-999	7	[0, 0, 0]	n/a	0	1	0	n/a	n/a	0.0	0	0	0	FR2	0	R1074M
881.514	24.305	500119	REC_WORD	5.705	n/a	SHOE	-999	7	[0, 0, 0]	n/a	0	1	0	n/a	n/a	0.0	0	0	0	FR2	0	R1074M
905.819	2.612	512271	REC_END	n/a	n/a	n/a	-999	7	[0, 0, 0]	n/a	0	1	0	n/a	n/a	0.0	0	0	0	FR2	0	R1074M
908.431	0.0	513576	TRIAL	n/a	n/a	n/a	-999	8	[0, 0, 0]	n/a	0	1	0	n/a	n/a	0.0	0	0	0	FR2	0	R1074M
908.431	10.0	513576	COUNTDOWN_START	n/a	n/a	n/a	-999	8	[0, 0, 0]	n/a	0	1	0	n/a	n/a	0.0	0	0	0	FR2	0	R1074M
918.859	0.008	518790	COUNTDOWN_END	n/a	n/a	n/a	-999	8	[0, 0, 0]	n/a	0	1	0	n/a	n/a	0.0	0	0	0	FR2	0	R1074M
918.867	1.6	518794	ORIENT	n/a	n/a	n/a	-999	8	[0, 0, 0]	n/a	0	1	0	n/a	n/a	0.0	0	0	0	FR2	0	R1074M
921.468	1.6	520095	WORD	n/a	wordpools/wordpool_EN.txt	CART	1	8	[0, 0, 0]	n/a	0	1	0	n/a	n/a	0.0	0	0	0	FR2	0	R1074M
923.951	1.6	521336	WORD	n/a	wordpools/wordpool_EN.txt	PEAR	2	8	[0, 0, 0]	n/a	0	1	0	n/a	n/a	0.0	0	0	0	FR2	0	R1074M
926.251	4.6	522486	STIM_ON	n/a	n/a	n/a	-999	8	[0, 0, 0]	n/a	1	1	4600	LX1	LX2	1000.0	50	230	300	FR2	0	R1074M
926.452	1.6	522586	WORD	n/a	wordpools/wordpool_EN.txt	VASE	3	8	[0, 0, 0]	n/a	1	1	4600	LX1	LX2	1000.0	50	230	300	FR2	0	R1074M
928.969	1.6	523845	WORD	n/a	wordpools/wordpool_EN.txt	AXE	4	8	[0, 0, 0]	n/a	1	1	4600	LX1	LX2	1000.0	50	230	300	FR2	0	R1074M
931.537	1.6	525129	WORD	n/a	wordpools/wordpool_EN.txt	TREE	5	8	[0, 0, 0]	n/a	0	1	0	n/a	n/a	0.0	0	0	0	FR2	0	R1074M
934.12	1.6	526420	WORD	n/a	wordpools/wordpool_EN.txt	DOOR	6	8	[0, 0, 0]	n/a	0	1	0	n/a	n/a	0.0	0	0	0	FR2	0	R1074M
936.312	4.6	527516	STIM_ON	n/a	n/a	n/a	-999	8	[0, 0, 0]	n/a	1	1	4600	LX1	LX2	1000.0	50	230	300	FR2	0	R1074M
936.521	1.6	527621	WORD	n/a	wordpools/wordpool_EN.txt	APE	7	8	[0, 0, 0]	n/a	1	1	4600	LX1	LX2	1000.0	50	230	300	FR2	0	R1074M
939.07	1.6	528895	WORD	n/a	wordpools/wordpool_EN.txt	BIRD	8	8	[0, 0, 0]	n/a	1	1	4600	LX1	LX2	1000.0	50	230	300	FR2	0	R1074M
941.654	1.6	530187	WORD	n/a	wordpools/wordpool_EN.txt	LAWN	9	8	[0, 0, 0]	n/a	0	1	0	n/a	n/a	0.0	0	0	0	FR2	0	R1074M
944.188	1.6	531454	WORD	n/a	wordpools/wordpool_EN.txt	COIN	10	8	[0, 0, 0]	n/a	0	1	0	n/a	n/a	0.0	0	0	0	FR2	0	R1074M
946.407	4.6	532563	STIM_ON	n/a	n/a	n/a	-999	8	[0, 0, 0]	n/a	1	1	4600	LX1	LX2	1000.0	50	230	300	FR2	0	R1074M
946.623	1.6	532671	WORD	n/a	wordpools/wordpool_EN.txt	OAK	11	8	[0, 0, 0]	n/a	1	1	4600	LX1	LX2	1000.0	50	230	300	FR2	0	R1074M
949.222	1.6	533971	WORD	n/a	wordpools/wordpool_EN.txt	SWAMP	12	8	[0, 0, 0]	n/a	1	1	4600	LX1	LX2	1000.0	50	230	300	FR2	0	R1074M
950.839	0.001	534779	DISTRACT_START	n/a	n/a	n/a	-999	8	[0, 0, 0]	n/a	1	1	4600	LX1	LX2	1000.0	50	230	300	FR2	0	R1074M
950.84	0.016	534780	START	n/a	n/a	n/a	-999	8	[-999, -999, -999]	n/a	0	1	0	n/a	n/a	0.0	0	0	0	FR2	0	R1074M
950.856	14.453	534788	PROB	14.419	n/a	n/a	-999	8	[6, 9, 6]	21	0	1	0	n/a	n/a	0.0	0	0	0	FR2	0	R1074M
965.309	7.342	542014	PROB	7.342	n/a	n/a	-999	8	[5, 8, 7]	19	0	1	0	n/a	n/a	0.0	0	0	0	FR2	0	R1074M
972.651	0.009	545685	STOP	n/a	n/a	n/a	-999	8	[-999, -999, -999]	n/a	0	1	0	n/a	n/a	0.0	0	0	0	FR2	0	R1074M
972.66	1.168	545689	DISTRACT_END	n/a	n/a	n/a	-999	8	[0, 0, 0]	n/a	0	1	0	n/a	n/a	0.0	0	0	0	FR2	0	R1074M
973.828	1.907	546273	REC_START	n/a	n/a	n/a	-999	8	[0, 0, 0]	n/a	0	1	0	n/a	n/a	0.0	0	0	0	FR2	0	R1074M
975.735	0.771	547227	REC_WORD	1.907	n/a	COIN	-999	8	[0, 0, 0]	n/a	0	1	0	n/a	n/a	0.0	0	0	0	FR2	0	R1074M
976.506	9.136	547612	REC_WORD	2.678	n/a	BIRD	-999	8	[0, 0, 0]	n/a	0	1	0	n/a	n/a	0.0	0	0	0	FR2	0	R1074M
985.642	18.196	552180	REC_WORD	11.814	n/a	LAWN	-999	8	[0, 0, 0]	n/a	0	1	0	n/a	n/a	0.0	0	0	0	FR2	0	R1074M
1003.838	3.396	561277	REC_END	n/a	n/a	n/a	-999	8	[0, 0, 0]	n/a	0	1	0	n/a	n/a	0.0	0	0	0	FR2	0	R1074M
1007.234	0.0	562975	TRIAL	n/a	n/a	n/a	-999	9	[0, 0, 0]	n/a	0	1	0	n/a	n/a	0.0	0	0	0	FR2	0	R1074M
1007.234	10.0	562975	COUNTDOWN_START	n/a	n/a	n/a	-999	9	[0, 0, 0]	n/a	0	1	0	n/a	n/a	0.0	0	0	0	FR2	0	R1074M
1017.662	0.007	568189	COUNTDOWN_END	n/a	n/a	n/a	-999	9	[0, 0, 0]	n/a	0	1	0	n/a	n/a	0.0	0	0	0	FR2	0	R1074M
1017.669	1.6	568192	ORIENT	n/a	n/a	n/a	-999	9	[0, 0, 0]	n/a	0	1	0	n/a	n/a	0.0	0	0	0	FR2	0	R1074M
1019.842	4.6	569279	STIM_ON	n/a	n/a	n/a	-999	9	[0, 0, 0]	n/a	1	1	4600	LX1	LX2	1000.0	50	230	300	FR2	0	R1074M
1020.053	1.6	569384	WORD	n/a	wordpools/wordpool_EN.txt	SEED	1	9	[0, 0, 0]	n/a	1	1	4600	LX1	LX2	1000.0	50	230	300	FR2	0	R1074M
1022.521	1.6	570618	WORD	n/a	wordpools/wordpool_EN.txt	CONE	2	9	[0, 0, 0]	n/a	1	1	4600	LX1	LX2	1000.0	50	230	300	FR2	0	R1074M
1024.92	1.6	571818	WORD	n/a	wordpools/wordpool_EN.txt	DITCH	3	9	[0, 0, 0]	n/a	0	1	0	n/a	n/a	0.0	0	0	0	FR2	0	R1074M
1027.388	1.6	573052	WORD	n/a	wordpools/wordpool_EN.txt	BEAN	4	9	[0, 0, 0]	n/a	0	1	0	n/a	n/a	0.0	0	0	0	FR2	0	R1074M
1029.728	4.6	574222	STIM_ON	n/a	n/a	n/a	-999	9	[0, 0, 0]	n/a	1	1	4600	LX1	LX2	1000.0	50	230	300	FR2	0	R1074M
1029.938	1.6	574327	WORD	n/a	wordpools/wordpool_EN.txt	FOOD	5	9	[0, 0, 0]	n/a	1	1	4600	LX1	LX2	1000.0	50	230	300	FR2	0	R1074M
1032.456	1.6	575586	WORD	n/a	wordpools/wordpool_EN.txt	MOON	6	9	[0, 0, 0]	n/a	1	1	4600	LX1	LX2	1000.0	50	230	300	FR2	0	R1074M
1035.005	1.6	576860	WORD	n/a	wordpools/wordpool_EN.txt	VINE	7	9	[0, 0, 0]	n/a	0	1	0	n/a	n/a	0.0	0	0	0	FR2	0	R1074M
1037.474	1.6	578094	WORD	n/a	wordpools/wordpool_EN.txt	WEED	8	9	[0, 0, 0]	n/a	0	1	0	n/a	n/a	0.0	0	0	0	FR2	0	R1074M
1039.779	4.6	579247	STIM_ON	n/a	n/a	n/a	-999	9	[0, 0, 0]	n/a	1	1	4600	LX1	LX2	1000.0	50	230	300	FR2	0	R1074M
1039.99	1.6	579352	WORD	n/a	wordpools/wordpool_EN.txt	STRAW	9	9	[0, 0, 0]	n/a	1	1	4600	LX1	LX2	1000.0	50	230	300	FR2	0	R1074M
1042.542	1.6	580628	WORD	n/a	wordpools/wordpool_EN.txt	DIME	10	9	[0, 0, 0]	n/a	1	1	4600	LX1	LX2	1000.0	50	230	300	FR2	0	R1074M
1045.024	1.6	581869	WORD	n/a	wordpools/wordpool_EN.txt	CHEEK	11	9	[0, 0, 0]	n/a	0	1	0	n/a	n/a	0.0	0	0	0	FR2	0	R1074M
1047.609	1.6	583162	WORD	n/a	wordpools/wordpool_EN.txt	CHAIR	12	9	[0, 0, 0]	n/a	0	1	0	n/a	n/a	0.0	0	0	0	FR2	0	R1074M
1049.225	0.001	583970	DISTRACT_START	n/a	n/a	n/a	-999	9	[0, 0, 0]	n/a	0	1	0	n/a	n/a	0.0	0	0	0	FR2	0	R1074M
1049.226	0.016	583970	START	n/a	n/a	n/a	-999	9	[-999, -999, -999]	n/a	0	1	0	n/a	n/a	0.0	0	0	0	FR2	0	R1074M
1049.242	4.352	583978	PROB	4.33	n/a	n/a	-999	9	[1, 2, 6]	9	0	1	0	n/a	n/a	0.0	0	0	0	FR2	0	R1074M
1053.594	5.1	586154	PROB	5.073	n/a	n/a	-999	9	[1, 3, 7]	11	0	1	0	n/a	n/a	0.0	0	0	0	FR2	0	R1074M
1058.694	6.802	588704	PROB	6.766	n/a	n/a	-999	9	[3, 9, 4]	16	0	1	0	n/a	n/a	0.0	0	0	0	FR2	0	R1074M
1065.496	7.771	592105	PROB	7.771	n/a	n/a	-999	9	[5, 7, 7]	19	0	1	0	n/a	n/a	0.0	0	0	0	FR2	0	R1074M
1073.267	0.013	595990	STOP	n/a	n/a	n/a	-999	9	[-999, -999, -999]	n/a	0	1	0	n/a	n/a	0.0	0	0	0	FR2	0	R1074M
1073.28	1.101	595996	DISTRACT_END	n/a	n/a	n/a	-999	9	[0, 0, 0]	n/a	0	1	0	n/a	n/a	0.0	0	0	0	FR2	0	R1074M
1074.381	3.709	596547	REC_START	n/a	n/a	n/a	-999	9	[0, 0, 0]	n/a	0	1	0	n/a	n/a	0.0	0	0	0	FR2	0	R1074M
1078.09	26.301	598401	REC_WORD	3.709	n/a	CONE	-999	9	[0, 0, 0]	n/a	0	1	0	n/a	n/a	0.0	0	0	0	FR2	0	R1074M
1104.391	4.396	611551	REC_END	n/a	n/a	n/a	-999	9	[0, 0, 0]	n/a	0	1	0	n/a	n/a	0.0	0	0	0	FR2	0	R1074M
1108.787	0.0	613749	TRIAL	n/a	n/a	n/a	-999	10	[0, 0, 0]	n/a	0	1	0	n/a	n/a	0.0	0	0	0	FR2	0	R1074M
1108.787	10.0	613749	COUNTDOWN_START	n/a	n/a	n/a	-999	10	[0, 0, 0]	n/a	0	1	0	n/a	n/a	0.0	0	0	0	FR2	0	R1074M
1119.215	0.007	618963	COUNTDOWN_END	n/a	n/a	n/a	-999	10	[0, 0, 0]	n/a	0	1	0	n/a	n/a	0.0	0	0	0	FR2	0	R1074M
1119.222	1.6	618966	ORIENT	n/a	n/a	n/a	-999	10	[0, 0, 0]	n/a	0	1	0	n/a	n/a	0.0	0	0	0	FR2	0	R1074M
1121.689	1.6	620200	WORD	n/a	wordpools/wordpool_EN.txt	CROWN	1	10	[0, 0, 0]	n/a	0	1	0	n/a	n/a	0.0	0	0	0	FR2	0	R1074M
1124.24	1.6	621475	WORD	n/a	wordpools/wordpool_EN.txt	TOAST	2	10	[0, 0, 0]	n/a	0	1	0	n/a	n/a	0.0	0	0	0	FR2	0	R1074M
1126.46	4.6	622585	STIM_ON	n/a	n/a	n/a	-999	10	[0, 0, 0]	n/a	1	1	4600	LX1	LX2	1000.0	50	230	300	FR2	0	R1074M
1126.674	1.6	622692	WORD	n/a	wordpools/wordpool_EN.txt	LIP	3	10	[0, 0, 0]	n/a	1	1	4600	LX1	LX2	1000.0	50	230	300	FR2	0	R1074M
1129.257	1.6	623983	WORD	n/a	wordpools/wordpool_EN.txt	GOLD	4	10	[0, 0, 0]	n/a	1	1	4600	LX1	LX2	1000.0	50	230	300	FR2	0	R1074M
1131.758	1.6	625234	WORD	n/a	wordpools/wordpool_EN.txt	BAG	5	10	[0, 0, 0]	n/a	0	1	0	n/a	n/a	0.0	0	0	0	FR2	0	R1074M
1134.375	1.6	626542	WORD	n/a	wordpools/wordpool_EN.txt	PLATE	6	10	[0, 0, 0]	n/a	0	1	0	n/a	n/a	0.0	0	0	0	FR2	0	R1074M
1136.758	4.6	627734	STIM_ON	n/a	n/a	n/a	-999	10	[0, 0, 0]	n/a	1	1	4600	LX1	LX2	1000.0	50	230	300	FR2	0	R1074M
1136.975	1.6	627842	WORD	n/a	wordpools/wordpool_EN.txt	CANE	7	10	[0, 0, 0]	n/a	1	1	4600	LX1	LX2	1000.0	50	230	300	FR2	0	R1074M
1139.494	1.6	629102	WORD	n/a	wordpools/wordpool_EN.txt	FROG	8	10	[0, 0, 0]	n/a	1	1	4600	LX1	LX2	1000.0	50	230	300	FR2	0	R1074M
1141.893	1.6	630301	WORD	n/a	wordpools/wordpool_EN.txt	BLOOM	9	10	[0, 0, 0]	n/a	0	1	0	n/a	n/a	0.0	0	0	0	FR2	0	R1074M
1144.478	1.6	631593	WORD	n/a	wordpools/wordpool_EN.txt	LOCK	10	10	[0, 0, 0]	n/a	0	1	0	n/a	n/a	0.0	0	0	0	FR2	0	R1074M
1146.659	4.6	632684	STIM_ON	n/a	n/a	n/a	-999	10	[0, 0, 0]	n/a	1	1	4600	LX1	LX2	1000.0	50	230	300	FR2	0	R1074M
1146.86	1.6	632784	WORD	n/a	wordpools/wordpool_EN.txt	PIT	11	10	[0, 0, 0]	n/a	1	1	4600	LX1	LX2	1000.0	50	230	300	FR2	0	R1074M
1149.261	1.6	633985	WORD	n/a	wordpools/wordpool_EN.txt	POLE	12	10	[0, 0, 0]	n/a	1	1	4600	LX1	LX2	1000.0	50	230	300	FR2	0	R1074M
1150.878	0.001	634793	DISTRACT_START	n/a	n/a	n/a	-999	10	[0, 0, 0]	n/a	1	1	4600	LX1	LX2	1000.0	50	230	300	FR2	0	R1074M
1150.879	0.016	634794	START	n/a	n/a	n/a	-999	10	[-999, -999, -999]	n/a	0	1	0	n/a	n/a	0.0	0	0	0	FR2	0	R1074M
1150.895	5.901	634802	PROB	5.876	n/a	n/a	-999	10	[9, 3, 9]	21	0	1	0	n/a	n/a	0.0	0	0	0	FR2	0	R1074M
1156.796	8.285	637752	PROB	8.263	n/a	n/a	-999	10	[6, 9, 9]	24	0	1	0	n/a	n/a	0.0	0	0	0	FR2	0	R1074M
1165.081	5.618	641894	PROB	5.594	n/a	n/a	-999	10	[4, 4, 8]	16	0	1	0	n/a	n/a	0.0	0	0	0	FR2	0	R1074M
1170.699	7.761	644703	PROB	7.761	n/a	n/a	-999	10	[5, 9, 3]	18	0	1	0	n/a	n/a	0.0	0	0	0	FR2	0	R1074M
1178.46	0.008	648583	STOP	n/a	n/a	n/a	-999	10	[-999, -999, -999]	n/a	0	1	0	n/a	n/a	0.0	0	0	0	FR2	0	R1074M
1178.468	1.084	648587	DISTRACT_END	n/a	n/a	n/a	-999	10	[0, 0, 0]	n/a	0	1	0	n/a	n/a	0.0	0	0	0	FR2	0	R1074M
1179.552	4.272	649129	REC_START	n/a	n/a	n/a	-999	10	[0, 0, 0]	n/a	0	1	0	n/a	n/a	0.0	0	0	0	FR2	0	R1074M
1183.824	25.738	651265	REC_WORD_VV	4.272	n/a	<>	-999	10	[0, 0, 0]	n/a	0	1	0	n/a	n/a	0.0	0	0	0	FR2	0	R1074M
1209.562	7.612	664134	REC_END	n/a	n/a	n/a	-999	10	[0, 0, 0]	n/a	0	1	0	n/a	n/a	0.0	0	0	0	FR2	0	R1074M
1217.174	10.0	667939	COUNTDOWN_START	n/a	n/a	n/a	-999	11	[0, 0, 0]	n/a	0	1	0	n/a	n/a	0.0	0	0	0	FR2	0	R1074M
1217.175	10.427	667940	TRIAL	n/a	n/a	n/a	-999	11	[0, 0, 0]	n/a	0	1	0	n/a	n/a	0.0	0	0	0	FR2	0	R1074M
1227.602	0.009	673153	COUNTDOWN_END	n/a	n/a	n/a	-999	11	[0, 0, 0]	n/a	0	1	0	n/a	n/a	0.0	0	0	0	FR2	0	R1074M
1227.611	1.6	673158	ORIENT	n/a	n/a	n/a	-999	11	[0, 0, 0]	n/a	0	1	0	n/a	n/a	0.0	0	0	0	FR2	0	R1074M
1229.844	4.6	674274	STIM_ON	n/a	n/a	n/a	-999	11	[0, 0, 0]	n/a	1	1	4600	LX1	LX2	1000.0	50	230	300	FR2	0	R1074M
1230.06	1.6	674382	WORD	n/a	wordpools/wordpool_EN.txt	RICE	1	11	[0, 0, 0]	n/a	1	1	4600	LX1	LX2	1000.0	50	230	300	FR2	0	R1074M
1232.545	1.6	675624	WORD	n/a	wordpools/wordpool_EN.txt	RAKE	2	11	[0, 0, 0]	n/a	1	1	4600	LX1	LX2	1000.0	50	230	300	FR2	0	R1074M
1234.928	1.6	676816	WORD	n/a	wordpools/wordpool_EN.txt	HOLE	3	11	[0, 0, 0]	n/a	0	1	0	n/a	n/a	0.0	0	0	0	FR2	0	R1074M
1237.479	1.6	678091	WORD	n/a	wordpools/wordpool_EN.txt	RUG	4	11	[0, 0, 0]	n/a	0	1	0	n/a	n/a	0.0	0	0	0	FR2	0	R1074M
1239.778	4.6	679241	STIM_ON	n/a	n/a	n/a	-999	11	[0, 0, 0]	n/a	1	1	4600	LX1	LX2	1000.0	50	230	300	FR2	0	R1074M
1239.996	1.6	679350	WORD	n/a	wordpools/wordpool_EN.txt	MOUTH	5	11	[0, 0, 0]	n/a	1	1	4600	LX1	LX2	1000.0	50	230	300	FR2	0	R1074M
1242.447	1.6	680575	WORD	n/a	wordpools/wordpool_EN.txt	SUN	6	11	[0, 0, 0]	n/a	1	1	4600	LX1	LX2	1000.0	50	230	300	FR2	0	R1074M
1244.913	1.6	681808	WORD	n/a	wordpools/wordpool_EN.txt	GLASS	7	11	[0, 0, 0]	n/a	0	1	0	n/a	n/a	0.0	0	0	0	FR2	0	R1074M
1247.498	1.6	683101	WORD	n/a	wordpools/wordpool_EN.txt	SOAP	8	11	[0, 0, 0]	n/a	0	1	0	n/a	n/a	0.0	0	0	0	FR2	0	R1074M
1249.871	4.6	684287	STIM_ON	n/a	n/a	n/a	-999	11	[0, 0, 0]	n/a	1	1	4600	LX1	LX2	1000.0	50	230	300	FR2	0	R1074M
1250.081	1.6	684392	WORD	n/a	wordpools/wordpool_EN.txt	EGG	9	11	[0, 0, 0]	n/a	1	1	4600	LX1	LX2	1000.0	50	230	300	FR2	0	R1074M
1252.499	1.6	685601	WORD	n/a	wordpools/wordpool_EN.txt	BRANCH	10	11	[0, 0, 0]	n/a	1	1	4600	LX1	LX2	1000.0	50	230	300	FR2	0	R1074M
1255.015	1.6	686859	WORD	n/a	wordpools/wordpool_EN.txt	MOOSE	11	11	[0, 0, 0]	n/a	0	1	0	n/a	n/a	0.0	0	0	0	FR2	0	R1074M
1257.45	1.6	688076	WORD	n/a	wordpools/wordpool_EN.txt	WORM	12	11	[0, 0, 0]	n/a	0	1	0	n/a	n/a	0.0	0	0	0	FR2	0	R1074M
1259.066	0.0	688884	DISTRACT_START	n/a	n/a	n/a	-999	11	[0, 0, 0]	n/a	0	1	0	n/a	n/a	0.0	0	0	0	FR2	0	R1074M
1259.066	0.016	688884	START	n/a	n/a	n/a	-999	11	[-999, -999, -999]	n/a	0	1	0	n/a	n/a	0.0	0	0	0	FR2	0	R1074M
1259.082	5.202	688892	PROB	5.169	n/a	n/a	-999	11	[3, 3, 7]	13	0	1	0	n/a	n/a	0.0	0	0	0	FR2	0	R1074M
1264.284	5.268	691493	PROB	5.24	n/a	n/a	-999	11	[2, 9, 2]	13	0	1	0	n/a	n/a	0.0	0	0	0	FR2	0	R1074M
1269.552	7.601	694127	PROB	7.58	n/a	n/a	-999	11	[3, 4, 4]	11	0	1	0	n/a	n/a	0.0	0	0	0	FR2	0	R1074M
1277.153	6.61	697927	PROB	6.61	n/a	n/a	-999	11	[4, 7, 2]	13	0	1	0	n/a	n/a	0.0	0	0	0	FR2	0	R1074M
1283.763	0.008	701232	STOP	n/a	n/a	n/a	-999	11	[-999, -999, -999]	n/a	0	1	0	n/a	n/a	0.0	0	0	0	FR2	0	R1074M
1283.771	1.217	701236	DISTRACT_END	n/a	n/a	n/a	-999	11	[0, 0, 0]	n/a	0	1	0	n/a	n/a	0.0	0	0	0	FR2	0	R1074M
1284.988	12.584	701844	REC_START	n/a	n/a	n/a	-999	11	[0, 0, 0]	n/a	0	1	0	n/a	n/a	0.0	0	0	0	FR2	0	R1074M
1297.572	17.426	708136	REC_WORD	12.584	n/a	RAKE	-999	11	[0, 0, 0]	n/a	0	1	0	n/a	n/a	0.0	0	0	0	FR2	0	R1074M
1314.998	5.03	716849	REC_END	n/a	n/a	n/a	-999	11	[0, 0, 0]	n/a	0	1	0	n/a	n/a	0.0	0	0	0	FR2	0	R1074M
1320.028	0.0	719364	TRIAL	n/a	n/a	n/a	-999	12	[0, 0, 0]	n/a	0	1	0	n/a	n/a	0.0	0	0	0	FR2	0	R1074M
1320.028	10.0	719364	COUNTDOWN_START	n/a	n/a	n/a	-999	12	[0, 0, 0]	n/a	0	1	0	n/a	n/a	0.0	0	0	0	FR2	0	R1074M
1330.456	0.008	724577	COUNTDOWN_END	n/a	n/a	n/a	-999	12	[0, 0, 0]	n/a	0	1	0	n/a	n/a	0.0	0	0	0	FR2	0	R1074M
1330.464	1.6	724581	ORIENT	n/a	n/a	n/a	-999	12	[0, 0, 0]	n/a	0	1	0	n/a	n/a	0.0	0	0	0	FR2	0	R1074M
1332.688	4.6	725693	STIM_ON	n/a	n/a	n/a	-999	12	[0, 0, 0]	n/a	1	1	4600	LX1	LX2	1000.0	50	230	300	FR2	0	R1074M
1332.897	1.6	725798	WORD	n/a	wordpools/wordpool_EN.txt	SHIRT	1	12	[0, 0, 0]	n/a	1	1	4600	LX1	LX2	1000.0	50	230	300	FR2	0	R1074M
1335.482	1.6	727090	WORD	n/a	wordpools/wordpool_EN.txt	TRUCK	2	12	[0, 0, 0]	n/a	1	1	4600	LX1	LX2	1000.0	50	230	300	FR2	0	R1074M
1337.914	1.6	728306	WORD	n/a	wordpools/wordpool_EN.txt	PEARL	3	12	[0, 0, 0]	n/a	0	1	0	n/a	n/a	0.0	0	0	0	FR2	0	R1074M
1340.315	1.6	729506	WORD	n/a	wordpools/wordpool_EN.txt	SHARK	4	12	[0, 0, 0]	n/a	0	1	0	n/a	n/a	0.0	0	0	0	FR2	0	R1074M
1342.696	4.6	730697	STIM_ON	n/a	n/a	n/a	-999	12	[0, 0, 0]	n/a	1	1	4600	LX1	LX2	1000.0	50	230	300	FR2	0	R1074M
1342.898	1.6	730798	WORD	n/a	wordpools/wordpool_EN.txt	FLOOR	5	12	[0, 0, 0]	n/a	1	1	4600	LX1	LX2	1000.0	50	230	300	FR2	0	R1074M
1345.283	1.6	731990	WORD	n/a	wordpools/wordpool_EN.txt	STOVE	6	12	[0, 0, 0]	n/a	1	1	4600	LX1	LX2	1000.0	50	230	300	FR2	0	R1074M
1347.783	1.6	733240	WORD	n/a	wordpools/wordpool_EN.txt	TRAIN	7	12	[0, 0, 0]	n/a	0	1	0	n/a	n/a	0.0	0	0	0	FR2	0	R1074M
1350.25	1.6	734474	WORD	n/a	wordpools/wordpool_EN.txt	SPRING	8	12	[0, 0, 0]	n/a	0	1	0	n/a	n/a	0.0	0	0	0	FR2	0	R1074M
1352.539	4.6	735618	STIM_ON	n/a	n/a	n/a	-999	12	[0, 0, 0]	n/a	1	1	4600	LX1	LX2	1000.0	50	230	300	FR2	0	R1074M
1352.751	1.6	735724	WORD	n/a	wordpools/wordpool_EN.txt	CAPE	9	12	[0, 0, 0]	n/a	1	1	4600	LX1	LX2	1000.0	50	230	300	FR2	0	R1074M
1355.201	1.6	736949	WORD	n/a	wordpools/wordpool_EN.txt	PEACH	10	12	[0, 0, 0]	n/a	1	1	4600	LX1	LX2	1000.0	50	230	300	FR2	0	R1074M
1357.768	1.6	738232	WORD	n/a	wordpools/wordpool_EN.txt	MUG	11	12	[0, 0, 0]	n/a	0	1	0	n/a	n/a	0.0	0	0	0	FR2	0	R1074M
1360.252	1.6	739474	WORD	n/a	wordpools/wordpool_EN.txt	HAT	12	12	[0, 0, 0]	n/a	0	1	0	n/a	n/a	0.0	0	0	0	FR2	0	R1074M
1361.869	0.001	740283	DISTRACT_START	n/a	n/a	n/a	-999	12	[0, 0, 0]	n/a	0	1	0	n/a	n/a	0.0	0	0	0	FR2	0	R1074M
1361.87	0.016	740283	START	n/a	n/a	n/a	-999	12	[-999, -999, -999]	n/a	0	1	0	n/a	n/a	0.0	0	0	0	FR2	0	R1074M
1361.886	7.468	740291	PROB	7.445	n/a	n/a	-999	12	[6, 7, 3]	16	0	1	0	n/a	n/a	0.0	0	0	0	FR2	0	R1074M
1369.354	6.601	744025	PROB	6.577	n/a	n/a	-999	12	[9, 9, 4]	23	0	1	0	n/a	n/a	0.0	0	0	0	FR2	0	R1074M
1375.955	7.561	747325	PROB	7.561	n/a	n/a	-999	12	[8, 8, 3]	19	0	1	0	n/a	n/a	0.0	0	0	0	FR2	0	R1074M
1383.516	0.008	751106	STOP	n/a	n/a	n/a	-999	12	[-999, -999, -999]	n/a	0	1	0	n/a	n/a	0.0	0	0	0	FR2	0	R1074M
1383.524	1.167	751110	DISTRACT_END	n/a	n/a	n/a	-999	12	[0, 0, 0]	n/a	0	1	0	n/a	n/a	0.0	0	0	0	FR2	0	R1074M
1384.691	0.969	751693	REC_START	n/a	n/a	n/a	-999	12	[0, 0, 0]	n/a	0	1	0	n/a	n/a	0.0	0	0	0	FR2	0	R1074M
1385.66	0.777	752178	REC_WORD	0.969	n/a	SPRING	-999	12	[0, 0, 0]	n/a	0	1	0	n/a	n/a	0.0	0	0	0	FR2	0	R1074M
1386.437	0.525	752566	REC_WORD	1.746	n/a	HAT	-999	12	[0, 0, 0]	n/a	0	1	0	n/a	n/a	0.0	0	0	0	FR2	0	R1074M
1386.962	9.461	752829	REC_WORD	2.271	n/a	PEACH	-999	12	[0, 0, 0]	n/a	0	1	0	n/a	n/a	0.0	0	0	0	FR2	0	R1074M
1396.423	18.278	757559	REC_WORD	11.732	n/a	SHIRT	-999	12	[0, 0, 0]	n/a	0	1	0	n/a	n/a	0.0	0	0	0	FR2	0	R1074M
1414.701	3.629	766697	REC_END	n/a	n/a	n/a	-999	12	[0, 0, 0]	n/a	0	1	0	n/a	n/a	0.0	0	0	0	FR2	0	R1074M
1418.33	0.0	768512	TRIAL	n/a	n/a	n/a	-999	13	[0, 0, 0]	n/a	0	1	0	n/a	n/a	0.0	0	0	0	FR2	0	R1074M
1418.33	10.0	768512	COUNTDOWN_START	n/a	n/a	n/a	-999	13	[0, 0, 0]	n/a	0	1	0	n/a	n/a	0.0	0	0	0	FR2	0	R1074M
1428.758	0.007	773725	COUNTDOWN_END	n/a	n/a	n/a	-999	13	[0, 0, 0]	n/a	0	1	0	n/a	n/a	0.0	0	0	0	FR2	0	R1074M
1428.765	1.6	773729	ORIENT	n/a	n/a	n/a	-999	13	[0, 0, 0]	n/a	0	1	0	n/a	n/a	0.0	0	0	0	FR2	0	R1074M
1431.024	4.6	774858	STIM_ON	n/a	n/a	n/a	-999	13	[0, 0, 0]	n/a	1	1	4600	LX1	LX2	1000.0	50	230	300	FR2	0	R1074M
1431.233	1.6	774963	WORD	n/a	wordpools/wordpool_EN.txt	BAND	1	13	[0, 0, 0]	n/a	1	1	4600	LX1	LX2	1000.0	50	230	300	FR2	0	R1074M
1433.833	1.6	776263	WORD	n/a	wordpools/wordpool_EN.txt	TOOTH	2	13	[0, 0, 0]	n/a	1	1	4600	LX1	LX2	1000.0	50	230	300	FR2	0	R1074M
1436.35	1.6	777521	WORD	n/a	wordpools/wordpool_EN.txt	ZOO	3	13	[0, 0, 0]	n/a	0	1	0	n/a	n/a	0.0	0	0	0	FR2	0	R1074M
1438.95	1.6	778821	WORD	n/a	wordpools/wordpool_EN.txt	CHIEF	4	13	[0, 0, 0]	n/a	0	1	0	n/a	n/a	0.0	0	0	0	FR2	0	R1074M
1441.165	4.6	779929	STIM_ON	n/a	n/a	n/a	-999	13	[0, 0, 0]	n/a	1	1	4600	LX1	LX2	1000.0	50	230	300	FR2	0	R1074M
1441.367	1.6	780030	WORD	n/a	wordpools/wordpool_EN.txt	FENCE	5	13	[0, 0, 0]	n/a	1	1	4600	LX1	LX2	1000.0	50	230	300	FR2	0	R1074M
1443.785	1.6	781239	WORD	n/a	wordpools/wordpool_EN.txt	BALL	6	13	[0, 0, 0]	n/a	1	1	4600	LX1	LX2	1000.0	50	230	300	FR2	0	R1074M
1446.169	1.6	782431	WORD	n/a	wordpools/wordpool_EN.txt	FUR	7	13	[0, 0, 0]	n/a	0	1	0	n/a	n/a	0.0	0	0	0	FR2	0	R1074M
1448.786	1.6	783739	WORD	n/a	wordpools/wordpool_EN.txt	ARK	8	13	[0, 0, 0]	n/a	0	1	0	n/a	n/a	0.0	0	0	0	FR2	0	R1074M
1450.98	4.6	784836	STIM_ON	n/a	n/a	n/a	-999	13	[0, 0, 0]	n/a	1	1	4600	LX1	LX2	1000.0	50	230	300	FR2	0	R1074M
1451.186	1.6	784939	WORD	n/a	wordpools/wordpool_EN.txt	INK	9	13	[0, 0, 0]	n/a	1	1	4600	LX1	LX2	1000.0	50	230	300	FR2	0	R1074M
1453.571	1.6	786131	WORD	n/a	wordpools/wordpool_EN.txt	MOTH	10	13	[0, 0, 0]	n/a	1	1	4600	LX1	LX2	1000.0	50	230	300	FR2	0	R1074M
1456.187	1.6	787439	WORD	n/a	wordpools/wordpool_EN.txt	BADGE	11	13	[0, 0, 0]	n/a	0	1	0	n/a	n/a	0.0	0	0	0	FR2	0	R1074M
1458.556	1.6	788624	WORD	n/a	wordpools/wordpool_EN.txt	SWORD	12	13	[0, 0, 0]	n/a	0	1	0	n/a	n/a	0.0	0	0	0	FR2	0	R1074M
1460.171	0.001	789431	DISTRACT_START	n/a	n/a	n/a	-999	13	[0, 0, 0]	n/a	0	1	0	n/a	n/a	0.0	0	0	0	FR2	0	R1074M
1460.172	0.016	789432	START	n/a	n/a	n/a	-999	13	[-999, -999, -999]	n/a	0	1	0	n/a	n/a	0.0	0	0	0	FR2	0	R1074M
1460.188	4.302	789440	PROB	4.272	n/a	n/a	-999	13	[7, 4, 2]	13	0	1	0	n/a	n/a	0.0	0	0	0	FR2	0	R1074M
1464.49	3.816	791590	PROB	3.793	n/a	n/a	-999	13	[2, 7, 5]	14	0	1	0	n/a	n/a	0.0	0	0	0	FR2	0	R1074M
1468.306	4.718	793498	PROB	4.697	n/a	n/a	-999	13	[6, 2, 2]	10	0	1	0	n/a	n/a	0.0	0	0	0	FR2	0	R1074M
1473.024	4.884	795857	PROB	4.859	n/a	n/a	-999	13	[7, 1, 9]	17	0	1	0	n/a	n/a	0.0	0	0	0	FR2	0	R1074M
1477.908	3.175	798299	PROB	3.175	n/a	n/a	-999	13	[4, 1, 6]	11	0	1	0	n/a	n/a	0.0	0	0	0	FR2	0	R1074M
1481.083	0.009	799887	STOP	n/a	n/a	n/a	-999	13	[-999, -999, -999]	n/a	0	1	0	n/a	n/a	0.0	0	0	0	FR2	0	R1074M
1481.092	1.101	799891	DISTRACT_END	n/a	n/a	n/a	-999	13	[0, 0, 0]	n/a	0	1	0	n/a	n/a	0.0	0	0	0	FR2	0	R1074M
1482.193	2.152	800442	REC_START	n/a	n/a	n/a	-999	13	[0, 0, 0]	n/a	0	1	0	n/a	n/a	0.0	0	0	0	FR2	0	R1074M
1484.345	2.56	801517	REC_WORD	2.152	n/a	BADGE	-999	13	[0, 0, 0]	n/a	0	1	0	n/a	n/a	0.0	0	0	0	FR2	0	R1074M
1486.905	25.296	802797	REC_WORD	4.712	n/a	CREEK	-999	13	[0, 0, 0]	n/a	0	1	0	n/a	n/a	0.0	0	0	0	FR2	0	R1074M
1512.201	23.885	815445	REC_END	n/a	n/a	n/a	-999	13	[0, 0, 0]	n/a	0	1	0	n/a	n/a	0.0	0	0	0	FR2	0	R1074M
1536.086	0.0	827386	TRIAL	n/a	n/a	n/a	-999	14	[0, 0, 0]	n/a	0	1	0	n/a	n/a	0.0	0	0	0	FR2	0	R1074M
1536.086	10.0	827386	COUNTDOWN_START	n/a	n/a	n/a	-999	14	[0, 0, 0]	n/a	0	1	0	n/a	n/a	0.0	0	0	0	FR2	0	R1074M
1546.514	0.009	832600	COUNTDOWN_END	n/a	n/a	n/a	-999	14	[0, 0, 0]	n/a	0	1	0	n/a	n/a	0.0	0	0	0	FR2	0	R1074M
1546.523	1.6	832605	ORIENT	n/a	n/a	n/a	-999	14	[0, 0, 0]	n/a	0	1	0	n/a	n/a	0.0	0	0	0	FR2	0	R1074M
1548.955	1.6	833821	WORD	n/a	wordpools/wordpool_EN.txt	CLOTH	1	14	[0, 0, 0]	n/a	0	1	0	n/a	n/a	0.0	0	0	0	FR2	0	R1074M
1551.473	1.6	835080	WORD	n/a	wordpools/wordpool_EN.txt	LAKE	2	14	[0, 0, 0]	n/a	0	1	0	n/a	n/a	0.0	0	0	0	FR2	0	R1074M
1553.772	4.6	836229	STIM_ON	n/a	n/a	n/a	-999	14	[0, 0, 0]	n/a	1	1	4600	LX1	LX2	1000.0	50	230	300	FR2	0	R1074M
1553.99	1.6	836338	WORD	n/a	wordpools/wordpool_EN.txt	KITE	3	14	[0, 0, 0]	n/a	1	1	4600	LX1	LX2	1000.0	50	230	300	FR2	0	R1074M
1556.574	1.6	837630	WORD	n/a	wordpools/wordpool_EN.txt	MOUSE	4	14	[0, 0, 0]	n/a	1	1	4600	LX1	LX2	1000.0	50	230	300	FR2	0	R1074M
1559.007	1.6	838846	WORD	n/a	wordpools/wordpool_EN.txt	SNOW	5	14	[0, 0, 0]	n/a	0	1	0	n/a	n/a	0.0	0	0	0	FR2	0	R1074M
1561.442	1.6	840064	WORD	n/a	wordpools/wordpool_EN.txt	MULE	6	14	[0, 0, 0]	n/a	0	1	0	n/a	n/a	0.0	0	0	0	FR2	0	R1074M
1563.742	4.6	841214	STIM_ON	n/a	n/a	n/a	-999	14	[0, 0, 0]	n/a	1	1	4600	LX1	LX2	1000.0	50	230	300	FR2	0	R1074M
1563.958	1.6	841322	WORD	n/a	wordpools/wordpool_EN.txt	JEEP	7	14	[0, 0, 0]	n/a	1	1	4600	LX1	LX2	1000.0	50	230	300	FR2	0	R1074M
1566.375	1.6	842530	WORD	n/a	wordpools/wordpool_EN.txt	DOCK	8	14	[0, 0, 0]	n/a	1	1	4600	LX1	LX2	1000.0	50	230	300	FR2	0	R1074M
1568.859	1.6	843772	WORD	n/a	wordpools/wordpool_EN.txt	DESK	9	14	[0, 0, 0]	n/a	0	1	0	n/a	n/a	0.0	0	0	0	FR2	0	R1074M
1571.293	1.6	844989	WORD	n/a	wordpools/wordpool_EN.txt	STAR	10	14	[0, 0, 0]	n/a	0	1	0	n/a	n/a	0.0	0	0	0	FR2	0	R1074M
1573.593	4.6	846139	STIM_ON	n/a	n/a	n/a	-999	14	[0, 0, 0]	n/a	1	1	4600	LX1	LX2	1000.0	50	230	300	FR2	0	R1074M
1573.81	1.6	846247	WORD	n/a	wordpools/wordpool_EN.txt	COUCH	11	14	[0, 0, 0]	n/a	1	1	4600	LX1	LX2	1000.0	50	230	300	FR2	0	R1074M
1576.411	1.6	847548	WORD	n/a	wordpools/wordpool_EN.txt	BOOT	12	14	[0, 0, 0]	n/a	1	1	4600	LX1	LX2	1000.0	50	230	300	FR2	0	R1074M
1578.028	0.0	848356	DISTRACT_START	n/a	n/a	n/a	-999	14	[0, 0, 0]	n/a	1	1	4600	LX1	LX2	1000.0	50	230	300	FR2	0	R1074M
1578.028	0.016	848356	START	n/a	n/a	n/a	-999	14	[-999, -999, -999]	n/a	0	1	0	n/a	n/a	0.0	0	0	0	FR2	0	R1074M
1578.044	8.553	848364	PROB	8.52	n/a	n/a	-999	14	[3, 8, 4]	13	0	1	0	n/a	n/a	0.0	0	0	0	FR2	0	R1074M
1586.597	11.686	852641	PROB	11.686	n/a	n/a	-999	14	[7, 9, 8]	24	0	1	0	n/a	n/a	0.0	0	0	0	FR2	0	R1074M
1598.283	0.015	858483	STOP	n/a	n/a	n/a	-999	14	[-999, -999, -999]	n/a	0	1	0	n/a	n/a	0.0	0	0	0	FR2	0	R1074M
1598.298	1.101	858491	DISTRACT_END	n/a	n/a	n/a	-999	14	[0, 0, 0]	n/a	0	1	0	n/a	n/a	0.0	0	0	0	FR2	0	R1074M
1599.399	5.959	859041	REC_START	n/a	n/a	n/a	-999	14	[0, 0, 0]	n/a	0	1	0	n/a	n/a	0.0	0	0	0	FR2	0	R1074M
1605.358	24.055	862021	REC_WORD	5.959	n/a	JEEP	-999	14	[0, 0, 0]	n/a	0	1	0	n/a	n/a	0.0	0	0	0	FR2	0	R1074M
1629.413	10.393	874047	REC_END	n/a	n/a	n/a	-999	14	[0, 0, 0]	n/a	0	1	0	n/a	n/a	0.0	0	0	0	FR2	0	R1074M
1639.806	0.0	879244	TRIAL	n/a	n/a	n/a	-999	15	[0, 0, 0]	n/a	0	1	0	n/a	n/a	0.0	0	0	0	FR2	0	R1074M
1639.806	10.0	879244	COUNTDOWN_START	n/a	n/a	n/a	-999	15	[0, 0, 0]	n/a	0	1	0	n/a	n/a	0.0	0	0	0	FR2	0	R1074M
1650.234	0.008	884457	COUNTDOWN_END	n/a	n/a	n/a	-999	15	[0, 0, 0]	n/a	0	1	0	n/a	n/a	0.0	0	0	0	FR2	0	R1074M
1650.242	1.6	884461	ORIENT	n/a	n/a	n/a	-999	15	[0, 0, 0]	n/a	0	1	0	n/a	n/a	0.0	0	0	0	FR2	0	R1074M
1652.709	1.6	885695	WORD	n/a	wordpools/wordpool_EN.txt	TOAD	1	15	[0, 0, 0]	n/a	0	1	0	n/a	n/a	0.0	0	0	0	FR2	0	R1074M
1655.109	1.6	886895	WORD	n/a	wordpools/wordpool_EN.txt	BARN	2	15	[0, 0, 0]	n/a	0	1	0	n/a	n/a	0.0	0	0	0	FR2	0	R1074M
1657.47	4.6	888075	STIM_ON	n/a	n/a	n/a	-999	15	[0, 0, 0]	n/a	1	1	4600	LX1	LX2	1000.0	50	230	300	FR2	0	R1074M
1657.676	1.6	888178	WORD	n/a	wordpools/wordpool_EN.txt	FAN	3	15	[0, 0, 0]	n/a	1	1	4600	LX1	LX2	1000.0	50	230	300	FR2	0	R1074M
1660.21	1.6	889445	WORD	n/a	wordpools/wordpool_EN.txt	POOL	4	15	[0, 0, 0]	n/a	1	1	4600	LX1	LX2	1000.0	50	230	300	FR2	0	R1074M
1662.66	1.6	890670	WORD	n/a	wordpools/wordpool_EN.txt	GATE	5	15	[0, 0, 0]	n/a	0	1	0	n/a	n/a	0.0	0	0	0	FR2	0	R1074M
1665.128	1.6	891904	WORD	n/a	wordpools/wordpool_EN.txt	STRING	6	15	[0, 0, 0]	n/a	0	1	0	n/a	n/a	0.0	0	0	0	FR2	0	R1074M
1667.311	4.6	892995	STIM_ON	n/a	n/a	n/a	-999	15	[0, 0, 0]	n/a	1	1	4600	LX1	LX2	1000.0	50	230	300	FR2	0	R1074M
1667.513	1.6	893096	WORD	n/a	wordpools/wordpool_EN.txt	LAMP	7	15	[0, 0, 0]	n/a	1	1	4600	LX1	LX2	1000.0	50	230	300	FR2	0	R1074M
1669.979	1.6	894329	WORD	n/a	wordpools/wordpool_EN.txt	YARD	8	15	[0, 0, 0]	n/a	1	1	4600	LX1	LX2	1000.0	50	230	300	FR2	0	R1074M
1672.464	1.6	895572	WORD	n/a	wordpools/wordpool_EN.txt	THREAD	9	15	[0, 0, 0]	n/a	0	1	0	n/a	n/a	0.0	0	0	0	FR2	0	R1074M
1674.93	1.6	896805	WORD	n/a	wordpools/wordpool_EN.txt	ROSE	10	15	[0, 0, 0]	n/a	0	1	0	n/a	n/a	0.0	0	0	0	FR2	0	R1074M
1677.177	4.6	897928	STIM_ON	n/a	n/a	n/a	-999	15	[0, 0, 0]	n/a	1	1	4600	LX1	LX2	1000.0	50	230	300	FR2	0	R1074M
1677.38	1.6	898030	WORD	n/a	wordpools/wordpool_EN.txt	HILL	11	15	[0, 0, 0]	n/a	1	1	4600	LX1	LX2	1000.0	50	230	300	FR2	0	R1074M
1679.764	1.6	899221	WORD	n/a	wordpools/wordpool_EN.txt	WHALE	12	15	[0, 0, 0]	n/a	1	1	4600	LX1	LX2	1000.0	50	230	300	FR2	0	R1074M
1681.381	0.001	900030	DISTRACT_START	n/a	n/a	n/a	-999	15	[0, 0, 0]	n/a	1	1	4600	LX1	LX2	1000.0	50	230	300	FR2	0	R1074M
1681.382	0.016	900030	START	n/a	n/a	n/a	-999	15	[-999, -999, -999]	n/a	0	1	0	n/a	n/a	0.0	0	0	0	FR2	0	R1074M
1681.398	7.434	900038	PROB	7.413	n/a	n/a	-999	15	[7, 6, 3]	16	0	1	0	n/a	n/a	0.0	0	0	0	FR2	0	R1074M
1688.832	4.068	903755	PROB	4.035	n/a	n/a	-999	15	[1, 5, 9]	15	0	1	0	n/a	n/a	0.0	0	0	0	FR2	0	R1074M
1692.9	6.768	905789	PROB	6.736	n/a	n/a	-999	15	[6, 4, 9]	19	0	1	0	n/a	n/a	0.0	0	0	0	FR2	0	R1074M
1699.668	2.767	909173	PROB	2.767	n/a	n/a	-999	15	[1, 5, 5]	11	0	1	0	n/a	n/a	0.0	0	0	0	FR2	0	R1074M
1702.435	0.018	910556	STOP	n/a	n/a	n/a	-999	15	[-999, -999, -999]	n/a	0	1	0	n/a	n/a	0.0	0	0	0	FR2	0	R1074M
1702.453	1.084	910565	DISTRACT_END	n/a	n/a	n/a	-999	15	[0, 0, 0]	n/a	0	1	0	n/a	n/a	0.0	0	0	0	FR2	0	R1074M
1703.537	2.57	911107	REC_START	n/a	n/a	n/a	-999	15	[0, 0, 0]	n/a	0	1	0	n/a	n/a	0.0	0	0	0	FR2	0	R1074M
1706.107	0.76	912392	REC_WORD	2.57	n/a	LAMP	-999	15	[0, 0, 0]	n/a	0	1	0	n/a	n/a	0.0	0	0	0	FR2	0	R1074M
1706.867	26.68	912772	REC_WORD	3.33	n/a	WHALE	-999	15	[0, 0, 0]	n/a	0	1	0	n/a	n/a	0.0	0	0	0	FR2	0	R1074M
1733.547	5.579	926111	REC_END	n/a	n/a	n/a	-999	15	[0, 0, 0]	n/a	0	1	0	n/a	n/a	0.0	0	0	0	FR2	0	R1074M
1739.126	0.0	928901	TRIAL	n/a	n/a	n/a	-999	16	[0, 0, 0]	n/a	0	1	0	n/a	n/a	0.0	0	0	0	FR2	0	R1074M
1739.126	10.0	928901	COUNTDOWN_START	n/a	n/a	n/a	-999	16	[0, 0, 0]	n/a	0	1	0	n/a	n/a	0.0	0	0	0	FR2	0	R1074M
1749.554	0.008	934115	COUNTDOWN_END	n/a	n/a	n/a	-999	16	[0, 0, 0]	n/a	0	1	0	n/a	n/a	0.0	0	0	0	FR2	0	R1074M
1749.562	1.6	934119	ORIENT	n/a	n/a	n/a	-999	16	[0, 0, 0]	n/a	0	1	0	n/a	n/a	0.0	0	0	0	FR2	0	R1074M
1752.061	1.6	935368	WORD	n/a	wordpools/wordpool_EN.txt	BEACH	1	16	[0, 0, 0]	n/a	0	1	0	n/a	n/a	0.0	0	0	0	FR2	0	R1074M
1754.645	1.6	936660	WORD	n/a	wordpools/wordpool_EN.txt	ROOF	2	16	[0, 0, 0]	n/a	0	1	0	n/a	n/a	0.0	0	0	0	FR2	0	R1074M
1756.872	4.6	937773	STIM_ON	n/a	n/a	n/a	-999	16	[0, 0, 0]	n/a	1	1	4600	LX1	LX2	1000.0	50	230	300	FR2	0	R1074M
1757.079	1.6	937877	WORD	n/a	wordpools/wordpool_EN.txt	VEST	3	16	[0, 0, 0]	n/a	1	1	4600	LX1	LX2	1000.0	50	230	300	FR2	0	R1074M
1759.464	1.6	939069	WORD	n/a	wordpools/wordpool_EN.txt	SPARK	4	16	[0, 0, 0]	n/a	1	1	4600	LX1	LX2	1000.0	50	230	300	FR2	0	R1074M
1761.913	1.6	940294	WORD	n/a	wordpools/wordpool_EN.txt	BOX	5	16	[0, 0, 0]	n/a	0	1	0	n/a	n/a	0.0	0	0	0	FR2	0	R1074M
1764.43	1.6	941552	WORD	n/a	wordpools/wordpool_EN.txt	PARK	6	16	[0, 0, 0]	n/a	0	1	0	n/a	n/a	0.0	0	0	0	FR2	0	R1074M
1766.769	4.6	942722	STIM_ON	n/a	n/a	n/a	-999	16	[0, 0, 0]	n/a	1	1	4600	LX1	LX2	1000.0	50	230	300	FR2	0	R1074M
1766.981	1.6	942828	WORD	n/a	wordpools/wordpool_EN.txt	GEESE	7	16	[0, 0, 0]	n/a	1	1	4600	LX1	LX2	1000.0	50	230	300	FR2	0	R1074M
1769.348	1.6	944011	WORD	n/a	wordpools/wordpool_EN.txt	PEA	8	16	[0, 0, 0]	n/a	1	1	4600	LX1	LX2	1000.0	50	230	300	FR2	0	R1074M
1771.765	1.6	945219	WORD	n/a	wordpools/wordpool_EN.txt	MAT	9	16	[0, 0, 0]	n/a	0	1	0	n/a	n/a	0.0	0	0	0	FR2	0	R1074M
1774.282	1.6	946478	WORD	n/a	wordpools/wordpool_EN.txt	SKI	10	16	[0, 0, 0]	n/a	0	1	0	n/a	n/a	0.0	0	0	0	FR2	0	R1074M
1776.612	4.6	947643	STIM_ON	n/a	n/a	n/a	-999	16	[0, 0, 0]	n/a	1	1	4600	LX1	LX2	1000.0	50	230	300	FR2	0	R1074M
1776.816	1.6	947745	WORD	n/a	wordpools/wordpool_EN.txt	STONE	11	16	[0, 0, 0]	n/a	1	1	4600	LX1	LX2	1000.0	50	230	300	FR2	0	R1074M
1779.25	1.6	948962	WORD	n/a	wordpools/wordpool_EN.txt	MOLE	12	16	[0, 0, 0]	n/a	1	1	4600	LX1	LX2	1000.0	50	230	300	FR2	0	R1074M
1780.867	0.001	949770	DISTRACT_START	n/a	n/a	n/a	-999	16	[0, 0, 0]	n/a	1	1	4600	LX1	LX2	1000.0	50	230	300	FR2	0	R1074M
1780.868	0.016	949771	START	n/a	n/a	n/a	-999	16	[-999, -999, -999]	n/a	0	1	0	n/a	n/a	0.0	0	0	0	FR2	0	R1074M
1780.884	20.759	949779	PROB	20.759	n/a	n/a	-999	16	[9, 6, 8]	23	0	1	0	n/a	n/a	0.0	0	0	0	FR2	0	R1074M
1801.643	0.011	960158	STOP	n/a	n/a	n/a	-999	16	[-999, -999, -999]	n/a	0	1	0	n/a	n/a	0.0	0	0	0	FR2	0	R1074M
1801.654	1.185	960163	DISTRACT_END	n/a	n/a	n/a	-999	16	[0, 0, 0]	n/a	0	1	0	n/a	n/a	0.0	0	0	0	FR2	0	R1074M
1802.839	2.705	960756	REC_START	n/a	n/a	n/a	-999	16	[0, 0, 0]	n/a	0	1	0	n/a	n/a	0.0	0	0	0	FR2	0	R1074M
1805.544	0.57	962108	REC_WORD	2.705	n/a	MOLE	-999	16	[0, 0, 0]	n/a	0	1	0	n/a	n/a	0.0	0	0	0	FR2	0	R1074M
1806.114	26.735	962393	REC_WORD	3.275	n/a	MAT	-999	16	[0, 0, 0]	n/a	0	1	0	n/a	n/a	0.0	0	0	0	FR2	0	R1074M
1832.849	17.649	975760	REC_END	n/a	n/a	n/a	-999	16	[0, 0, 0]	n/a	0	1	0	n/a	n/a	0.0	0	0	0	FR2	0	R1074M
1850.498	0.0	984584	TRIAL	n/a	n/a	n/a	-999	17	[0, 0, 0]	n/a	0	0	0	n/a	n/a	0.0	0	0	0	FR2	0	R1074M
1850.498	10.0	984584	COUNTDOWN_START	n/a	n/a	n/a	-999	17	[0, 0, 0]	n/a	0	0	0	n/a	n/a	0.0	0	0	0	FR2	0	R1074M
1860.926	0.006	989797	COUNTDOWN_END	n/a	n/a	n/a	-999	17	[0, 0, 0]	n/a	0	0	0	n/a	n/a	0.0	0	0	0	FR2	0	R1074M
1860.932	1.6	989800	ORIENT	n/a	n/a	n/a	-999	17	[0, 0, 0]	n/a	0	0	0	n/a	n/a	0.0	0	0	0	FR2	0	R1074M
1863.3	1.6	990984	WORD	n/a	wordpools/wordpool_EN.txt	STEAK	1	17	[0, 0, 0]	n/a	0	0	0	n/a	n/a	0.0	0	0	0	FR2	0	R1074M
1865.833	1.6	992251	WORD	n/a	wordpools/wordpool_EN.txt	STEAM	2	17	[0, 0, 0]	n/a	0	0	0	n/a	n/a	0.0	0	0	0	FR2	0	R1074M
1868.417	1.6	993543	WORD	n/a	wordpools/wordpool_EN.txt	GOAT	3	17	[0, 0, 0]	n/a	0	0	0	n/a	n/a	0.0	0	0	0	FR2	0	R1074M
1870.851	1.6	994760	WORD	n/a	wordpools/wordpool_EN.txt	ROOM	4	17	[0, 0, 0]	n/a	0	0	0	n/a	n/a	0.0	0	0	0	FR2	0	R1074M
1873.235	1.6	995952	WORD	n/a	wordpools/wordpool_EN.txt	NAIL	5	17	[0, 0, 0]	n/a	0	0	0	n/a	n/a	0.0	0	0	0	FR2	0	R1074M
1875.819	1.6	997244	WORD	n/a	wordpools/wordpool_EN.txt	SNAKE	6	17	[0, 0, 0]	n/a	0	0	0	n/a	n/a	0.0	0	0	0	FR2	0	R1074M
1878.319	1.6	998493	WORD	n/a	wordpools/wordpool_EN.txt	FARM	7	17	[0, 0, 0]	n/a	0	0	0	n/a	n/a	0.0	0	0	0	FR2	0	R1074M
1880.703	1.6	999685	WORD	n/a	wordpools/wordpool_EN.txt	HOOF	8	17	[0, 0, 0]	n/a	0	0	0	n/a	n/a	0.0	0	0	0	FR2	0	R1074M
1883.27	1.6	1000969	WORD	n/a	wordpools/wordpool_EN.txt	FRUIT	9	17	[0, 0, 0]	n/a	0	0	0	n/a	n/a	0.0	0	0	0	FR2	0	R1074M
1885.704	1.6	1002186	WORD	n/a	wordpools/wordpool_EN.txt	CROW	10	17	[0, 0, 0]	n/a	0	0	0	n/a	n/a	0.0	0	0	0	FR2	0	R1074M
1888.188	1.6	1003428	WORD	n/a	wordpools/wordpool_EN.txt	POND	11	17	[0, 0, 0]	n/a	0	0	0	n/a	n/a	0.0	0	0	0	FR2	0	R1074M
1890.705	1.6	1004686	WORD	n/a	wordpools/wordpool_EN.txt	HORN	12	17	[0, 0, 0]	n/a	0	0	0	n/a	n/a	0.0	0	0	0	FR2	0	R1074M
1892.322	0.001	1005495	DISTRACT_START	n/a	n/a	n/a	-999	17	[0, 0, 0]	n/a	0	0	0	n/a	n/a	0.0	0	0	0	FR2	0	R1074M
1892.323	0.016	1005495	START	n/a	n/a	n/a	-999	17	[-999, -999, -999]	n/a	0	0	0	n/a	n/a	0.0	0	0	0	FR2	0	R1074M
1892.339	5.851	1005503	PROB	5.824	n/a	n/a	-999	17	[7, 3, 3]	13	0	0	0	n/a	n/a	0.0	0	0	0	FR2	0	R1074M
1898.19	12.619	1008428	PROB	12.597	n/a	n/a	-999	17	[9, 2, 3]	14	0	0	0	n/a	n/a	0.0	0	0	0	FR2	0	R1074M
1910.809	4.906	1014738	PROB	4.906	n/a	n/a	-999	17	[7, 8, 1]	16	0	0	0	n/a	n/a	0.0	0	0	0	FR2	0	R1074M
1915.715	0.011	1017190	STOP	n/a	n/a	n/a	-999	17	[-999, -999, -999]	n/a	0	0	0	n/a	n/a	0.0	0	0	0	FR2	0	R1074M
1915.726	1.135	1017196	DISTRACT_END	n/a	n/a	n/a	-999	17	[0, 0, 0]	n/a	0	0	0	n/a	n/a	0.0	0	0	0	FR2	0	R1074M
1916.861	6.64	1017763	REC_START	n/a	n/a	n/a	-999	17	[0, 0, 0]	n/a	0	0	0	n/a	n/a	0.0	0	0	0	FR2	0	R1074M
1923.501	23.368	1021083	REC_WORD_VV	6.64	n/a	<>	-999	17	[0, 0, 0]	n/a	0	0	0	n/a	n/a	0.0	0	0	0	FR2	0	R1074M
1946.869	8.832	1032767	REC_END	n/a	n/a	n/a	-999	17	[0, 0, 0]	n/a	0	0	0	n/a	n/a	0.0	0	0	0	FR2	0	R1074M
1955.701	0.0	1037182	TRIAL	n/a	n/a	n/a	-999	18	[0, 0, 0]	n/a	0	1	0	n/a	n/a	0.0	0	0	0	FR2	0	R1074M
1955.701	10.0	1037182	COUNTDOWN_START	n/a	n/a	n/a	-999	18	[0, 0, 0]	n/a	0	1	0	n/a	n/a	0.0	0	0	0	FR2	0	R1074M
1966.129	0.007	1042396	COUNTDOWN_END	n/a	n/a	n/a	-999	18	[0, 0, 0]	n/a	0	1	0	n/a	n/a	0.0	0	0	0	FR2	0	R1074M
1966.136	1.6	1042400	ORIENT	n/a	n/a	n/a	-999	18	[0, 0, 0]	n/a	0	1	0	n/a	n/a	0.0	0	0	0	FR2	0	R1074M
1968.77	1.6	1043716	WORD	n/a	wordpools/wordpool_EN.txt	EAR	1	18	[0, 0, 0]	n/a	0	1	0	n/a	n/a	0.0	0	0	0	FR2	0	R1074M
1971.221	1.6	1044942	WORD	n/a	wordpools/wordpool_EN.txt	HOSE	2	18	[0, 0, 0]	n/a	0	1	0	n/a	n/a	0.0	0	0	0	FR2	0	R1074M
1973.491	4.6	1046077	STIM_ON	n/a	n/a	n/a	-999	18	[0, 0, 0]	n/a	1	1	4600	LX1	LX2	1000.0	50	230	300	FR2	0	R1074M
1973.704	1.6	1046183	WORD	n/a	wordpools/wordpool_EN.txt	BEE	3	18	[0, 0, 0]	n/a	1	1	4600	LX1	LX2	1000.0	50	230	300	FR2	0	R1074M
1976.188	1.6	1047425	WORD	n/a	wordpools/wordpool_EN.txt	JAR	4	18	[0, 0, 0]	n/a	1	1	4600	LX1	LX2	1000.0	50	230	300	FR2	0	R1074M
1978.772	1.6	1048717	WORD	n/a	wordpools/wordpool_EN.txt	DRESS	5	18	[0, 0, 0]	n/a	0	1	0	n/a	n/a	0.0	0	0	0	FR2	0	R1074M
1981.372	1.6	1050017	WORD	n/a	wordpools/wordpool_EN.txt	TOOL	6	18	[0, 0, 0]	n/a	0	1	0	n/a	n/a	0.0	0	0	0	FR2	0	R1074M
1983.628	4.6	1051145	STIM_ON	n/a	n/a	n/a	-999	18	[0, 0, 0]	n/a	1	1	4600	LX1	LX2	1000.0	50	230	300	FR2	0	R1074M
1983.84	1.6	1051251	WORD	n/a	wordpools/wordpool_EN.txt	CAGE	7	18	[0, 0, 0]	n/a	1	1	4600	LX1	LX2	1000.0	50	230	300	FR2	0	R1074M
1986.29	1.6	1052476	WORD	n/a	wordpools/wordpool_EN.txt	BRUSH	8	18	[0, 0, 0]	n/a	1	1	4600	LX1	LX2	1000.0	50	230	300	FR2	0	R1074M
1988.791	1.6	1053726	WORD	n/a	wordpools/wordpool_EN.txt	SHIELD	9	18	[0, 0, 0]	n/a	0	1	0	n/a	n/a	0.0	0	0	0	FR2	0	R1074M
1991.324	1.6	1054993	WORD	n/a	wordpools/wordpool_EN.txt	CLIFF	10	18	[0, 0, 0]	n/a	0	1	0	n/a	n/a	0.0	0	0	0	FR2	0	R1074M
1993.725	4.6	1056193	STIM_ON	n/a	n/a	n/a	-999	18	[0, 0, 0]	n/a	1	1	4600	LX1	LX2	1000.0	50	230	300	FR2	0	R1074M
1993.942	1.6	1056302	WORD	n/a	wordpools/wordpool_EN.txt	DART	11	18	[0, 0, 0]	n/a	1	1	4600	LX1	LX2	1000.0	50	230	300	FR2	0	R1074M
1996.392	1.6	1057527	WORD	n/a	wordpools/wordpool_EN.txt	COW	12	18	[0, 0, 0]	n/a	1	1	4600	LX1	LX2	1000.0	50	230	300	FR2	0	R1074M
1998.009	0.001	1058335	DISTRACT_START	n/a	n/a	n/a	-999	18	[0, 0, 0]	n/a	1	1	4600	LX1	LX2	1000.0	50	230	300	FR2	0	R1074M
1998.01	0.016	1058336	START	n/a	n/a	n/a	-999	18	[-999, -999, -999]	n/a	0	1	0	n/a	n/a	0.0	0	0	0	FR2	0	R1074M
1998.026	5.384	1058344	PROB	5.353	n/a	n/a	-999	18	[5, 5, 6]	16	0	1	0	n/a	n/a	0.0	0	0	0	FR2	0	R1074M
2003.41	6.186	1061035	PROB	6.154	n/a	n/a	-999	18	[3, 9, 7]	19	0	1	0	n/a	n/a	0.0	0	0	0	FR2	0	R1074M
2009.596	4.5	1064128	PROB	4.471	n/a	n/a	-999	18	[4, 2, 8]	14	0	1	0	n/a	n/a	0.0	0	0	0	FR2	0	R1074M
2014.096	3.184	1066378	PROB	3.163	n/a	n/a	-999	18	[7, 3, 2]	12	0	1	0	n/a	n/a	0.0	0	0	0	FR2	0	R1074M
2017.28	12.252	1067970	PROB	12.252	n/a	n/a	-999	18	[9, 8, 8]	25	0	1	0	n/a	n/a	0.0	0	0	0	FR2	0	R1074M
2029.532	0.017	1074096	STOP	n/a	n/a	n/a	-999	18	[-999, -999, -999]	n/a	0	1	0	n/a	n/a	0.0	0	0	0	FR2	0	R1074M
2029.549	1.167	1074104	DISTRACT_END	n/a	n/a	n/a	-999	18	[0, 0, 0]	n/a	0	1	0	n/a	n/a	0.0	0	0	0	FR2	0	R1074M
2030.716	1.554	1074688	REC_START	n/a	n/a	n/a	-999	18	[0, 0, 0]	n/a	0	1	0	n/a	n/a	0.0	0	0	0	FR2	0	R1074M
2032.27	0.438	1075465	REC_WORD	1.554	n/a	EAR	-999	18	[0, 0, 0]	n/a	0	1	0	n/a	n/a	0.0	0	0	0	FR2	0	R1074M
2032.708	28.018	1075684	REC_WORD	1.992	n/a	JAR	-999	18	[0, 0, 0]	n/a	0	1	0	n/a	n/a	0.0	0	0	0	FR2	0	R1074M
2060.726	6.413	1089692	REC_END	n/a	n/a	n/a	-999	18	[0, 0, 0]	n/a	0	1	0	n/a	n/a	0.0	0	0	0	FR2	0	R1074M
2067.139	10.0	1092898	COUNTDOWN_START	n/a	n/a	n/a	-999	19	[0, 0, 0]	n/a	0	0	0	n/a	n/a	0.0	0	0	0	FR2	0	R1074M
2067.139	10.428	1092898	TRIAL	n/a	n/a	n/a	-999	19	[0, 0, 0]	n/a	0	0	0	n/a	n/a	0.0	0	0	0	FR2	0	R1074M
2077.567	0.008	1098112	COUNTDOWN_END	n/a	n/a	n/a	-999	19	[0, 0, 0]	n/a	0	0	0	n/a	n/a	0.0	0	0	0	FR2	0	R1074M
2077.575	1.6	1098116	ORIENT	n/a	n/a	n/a	-999	19	[0, 0, 0]	n/a	0	0	0	n/a	n/a	0.0	0	0	0	FR2	0	R1074M
2080.125	1.6	1099391	WORD	n/a	wordpools/wordpool_EN.txt	DOG	1	19	[0, 0, 0]	n/a	0	0	0	n/a	n/a	0.0	0	0	0	FR2	0	R1074M
2082.692	1.6	1100674	WORD	n/a	wordpools/wordpool_EN.txt	WOOD	2	19	[0, 0, 0]	n/a	0	0	0	n/a	n/a	0.0	0	0	0	FR2	0	R1074M
2085.243	1.6	1101950	WORD	n/a	wordpools/wordpool_EN.txt	EEL	3	19	[0, 0, 0]	n/a	0	0	0	n/a	n/a	0.0	0	0	0	FR2	0	R1074M
2087.743	1.6	1103200	WORD	n/a	wordpools/wordpool_EN.txt	FOAM	4	19	[0, 0, 0]	n/a	0	0	0	n/a	n/a	0.0	0	0	0	FR2	0	R1074M
2090.36	1.6	1104508	WORD	n/a	wordpools/wordpool_EN.txt	MAIL	5	19	[0, 0, 0]	n/a	0	0	0	n/a	n/a	0.0	0	0	0	FR2	0	R1074M
2092.977	1.6	1105816	WORD	n/a	wordpools/wordpool_EN.txt	WOLF	6	19	[0, 0, 0]	n/a	0	0	0	n/a	n/a	0.0	0	0	0	FR2	0	R1074M
2095.361	1.6	1107008	WORD	n/a	wordpools/wordpool_EN.txt	LAND	7	19	[0, 0, 0]	n/a	0	0	0	n/a	n/a	0.0	0	0	0	FR2	0	R1074M
2097.978	1.6	1108317	WORD	n/a	wordpools/wordpool_EN.txt	WHEEL	8	19	[0, 0, 0]	n/a	0	0	0	n/a	n/a	0.0	0	0	0	FR2	0	R1074M
2100.379	1.6	1109517	WORD	n/a	wordpools/wordpool_EN.txt	CHALK	9	19	[0, 0, 0]	n/a	0	0	0	n/a	n/a	0.0	0	0	0	FR2	0	R1074M
2102.962	1.6	1110809	WORD	n/a	wordpools/wordpool_EN.txt	TAIL	10	19	[0, 0, 0]	n/a	0	0	0	n/a	n/a	0.0	0	0	0	FR2	0	R1074M
2105.346	1.6	1112001	WORD	n/a	wordpools/wordpool_EN.txt	SIGN	11	19	[0, 0, 0]	n/a	0	0	0	n/a	n/a	0.0	0	0	0	FR2	0	R1074M
2107.814	1.6	1113235	WORD	n/a	wordpools/wordpool_EN.txt	TANK	12	19	[0, 0, 0]	n/a	0	0	0	n/a	n/a	0.0	0	0	0	FR2	0	R1074M
2109.431	0.0	1114043	DISTRACT_START	n/a	n/a	n/a	-999	19	[0, 0, 0]	n/a	0	0	0	n/a	n/a	0.0	0	0	0	FR2	0	R1074M
2109.431	0.017	1114043	START	n/a	n/a	n/a	-999	19	[-999, -999, -999]	n/a	0	0	0	n/a	n/a	0.0	0	0	0	FR2	0	R1074M
2109.448	7.334	1114052	PROB	7.299	n/a	n/a	-999	19	[5, 8, 4]	16	0	0	0	n/a	n/a	0.0	0	0	0	FR2	0	R1074M
2116.782	5.468	1117718	PROB	5.437	n/a	n/a	-999	19	[4, 6, 9]	18	0	0	0	n/a	n/a	0.0	0	0	0	FR2	0	R1074M
2122.25	3.817	1120452	PROB	3.793	n/a	n/a	-999	19	[1, 2, 4]	7	0	0	0	n/a	n/a	0.0	0	0	0	FR2	0	R1074M
2126.067	8.216	1122361	PROB	8.216	n/a	n/a	-999	19	[6, 7, 8]	21	0	0	0	n/a	n/a	0.0	0	0	0	FR2	0	R1074M
2134.283	0.002	1126468	STOP	n/a	n/a	n/a	-999	19	[-999, -999, -999]	n/a	0	0	0	n/a	n/a	0.0	0	0	0	FR2	0	R1074M
2134.285	1.068	1126469	DISTRACT_END	n/a	n/a	n/a	-999	19	[0, 0, 0]	n/a	0	0	0	n/a	n/a	0.0	0	0	0	FR2	0	R1074M
2135.353	1.542	1127003	REC_START	n/a	n/a	n/a	-999	19	[0, 0, 0]	n/a	0	0	0	n/a	n/a	0.0	0	0	0	FR2	0	R1074M
2136.895	1.09	1127774	REC_WORD	1.542	n/a	DOG	-999	19	[0, 0, 0]	n/a	0	0	0	n/a	n/a	0.0	0	0	0	FR2	0	R1074M
2137.985	0.415	1128319	REC_WORD	2.632	n/a	WOOD	-999	19	[0, 0, 0]	n/a	0	0	0	n/a	n/a	0.0	0	0	0	FR2	0	R1074M
2138.4	26.961	1128527	REC_WORD	3.047	n/a	EEL	-999	19	[0, 0, 0]	n/a	0	0	0	n/a	n/a	0.0	0	0	0	FR2	0	R1074M
2165.361	4.099	1142006	REC_END	n/a	n/a	n/a	-999	19	[0, 0, 0]	n/a	0	0	0	n/a	n/a	0.0	0	0	0	FR2	0	R1074M
2169.46	0.0	1144056	TRIAL	n/a	n/a	n/a	-999	20	[0, 0, 0]	n/a	0	0	0	n/a	n/a	0.0	0	0	0	FR2	0	R1074M
2169.46	10.0	1144056	COUNTDOWN_START	n/a	n/a	n/a	-999	20	[0, 0, 0]	n/a	0	0	0	n/a	n/a	0.0	0	0	0	FR2	0	R1074M
2179.888	0.006	1149270	COUNTDOWN_END	n/a	n/a	n/a	-999	20	[0, 0, 0]	n/a	0	0	0	n/a	n/a	0.0	0	0	0	FR2	0	R1074M
2179.894	1.6	1149273	ORIENT	n/a	n/a	n/a	-999	20	[0, 0, 0]	n/a	0	0	0	n/a	n/a	0.0	0	0	0	FR2	0	R1074M
2182.395	1.6	1150523	WORD	n/a	wordpools/wordpool_EN.txt	ROPE	1	20	[0, 0, 0]	n/a	0	0	0	n/a	n/a	0.0	0	0	0	FR2	0	R1074M
2184.779	1.6	1151715	WORD	n/a	wordpools/wordpool_EN.txt	CORD	2	20	[0, 0, 0]	n/a	0	0	0	n/a	n/a	0.0	0	0	0	FR2	0	R1074M
2187.246	1.6	1152948	WORD	n/a	wordpools/wordpool_EN.txt	BEAK	3	20	[0, 0, 0]	n/a	0	0	0	n/a	n/a	0.0	0	0	0	FR2	0	R1074M
2189.796	1.6	1154223	WORD	n/a	wordpools/wordpool_EN.txt	CAT	4	20	[0, 0, 0]	n/a	0	0	0	n/a	n/a	0.0	0	0	0	FR2	0	R1074M
2192.413	1.6	1155532	WORD	n/a	wordpools/wordpool_EN.txt	BOWL	5	20	[0, 0, 0]	n/a	0	0	0	n/a	n/a	0.0	0	0	0	FR2	0	R1074M
2194.981	1.6	1156816	WORD	n/a	wordpools/wordpool_EN.txt	RAIN	6	20	[0, 0, 0]	n/a	0	0	0	n/a	n/a	0.0	0	0	0	FR2	0	R1074M
2197.465	1.6	1158058	WORD	n/a	wordpools/wordpool_EN.txt	MUD	7	20	[0, 0, 0]	n/a	0	0	0	n/a	n/a	0.0	0	0	0	FR2	0	R1074M
2199.965	1.6	1159307	WORD	n/a	wordpools/wordpool_EN.txt	PIN	8	20	[0, 0, 0]	n/a	0	0	0	n/a	n/a	0.0	0	0	0	FR2	0	R1074M
2202.483	1.6	1160566	WORD	n/a	wordpools/wordpool_EN.txt	SPEAR	9	20	[0, 0, 0]	n/a	0	0	0	n/a	n/a	0.0	0	0	0	FR2	0	R1074M
2204.866	1.6	1161758	WORD	n/a	wordpools/wordpool_EN.txt	PHONE	10	20	[0, 0, 0]	n/a	0	0	0	n/a	n/a	0.0	0	0	0	FR2	0	R1074M
2207.283	1.6	1162966	WORD	n/a	wordpools/wordpool_EN.txt	DRUM	11	20	[0, 0, 0]	n/a	0	0	0	n/a	n/a	0.0	0	0	0	FR2	0	R1074M
2209.683	1.6	1164166	WORD	n/a	wordpools/wordpool_EN.txt	CHIN	12	20	[0, 0, 0]	n/a	0	0	0	n/a	n/a	0.0	0	0	0	FR2	0	R1074M
2211.3	0.001	1164975	DISTRACT_START	n/a	n/a	n/a	-999	20	[0, 0, 0]	n/a	0	0	0	n/a	n/a	0.0	0	0	0	FR2	0	R1074M
2211.301	0.016	1164975	START	n/a	n/a	n/a	-999	20	[-999, -999, -999]	n/a	0	0	0	n/a	n/a	0.0	0	0	0	FR2	0	R1074M
2211.317	9.035	1164983	PROB	9.014	n/a	n/a	-999	20	[7, 2, 5]	14	0	0	0	n/a	n/a	0.0	0	0	0	FR2	0	R1074M
2220.352	9.385	1169500	PROB	9.355	n/a	n/a	-999	20	[5, 8, 4]	17	0	0	0	n/a	n/a	0.0	0	0	0	FR2	0	R1074M
2229.737	6.682	1174193	PROB	6.682	n/a	n/a	-999	20	[3, 7, 9]	19	0	0	0	n/a	n/a	0.0	0	0	0	FR2	0	R1074M
2236.419	0.021	1177533	STOP	n/a	n/a	n/a	-999	20	[-999, -999, -999]	n/a	0	0	0	n/a	n/a	0.0	0	0	0	FR2	0	R1074M
2236.44	1.2	1177544	DISTRACT_END	n/a	n/a	n/a	-999	20	[0, 0, 0]	n/a	0	0	0	n/a	n/a	0.0	0	0	0	FR2	0	R1074M
2237.64	1.905	1178144	REC_START	n/a	n/a	n/a	-999	20	[0, 0, 0]	n/a	0	0	0	n/a	n/a	0.0	0	0	0	FR2	0	R1074M
2239.545	28.105	1179096	REC_WORD	1.905	n/a	CHIN	-999	20	[0, 0, 0]	n/a	0	0	0	n/a	n/a	0.0	0	0	0	FR2	0	R1074M
2267.65	3.93	1193148	REC_END	n/a	n/a	n/a	-999	20	[0, 0, 0]	n/a	0	0	0	n/a	n/a	0.0	0	0	0	FR2	0	R1074M
2271.58	0.0	1195113	TRIAL	n/a	n/a	n/a	-999	21	[0, 0, 0]	n/a	0	1	0	n/a	n/a	0.0	0	0	0	FR2	0	R1074M
2271.58	10.0	1195113	COUNTDOWN_START	n/a	n/a	n/a	-999	21	[0, 0, 0]	n/a	0	1	0	n/a	n/a	0.0	0	0	0	FR2	0	R1074M
2282.008	0.006	1200327	COUNTDOWN_END	n/a	n/a	n/a	-999	21	[0, 0, 0]	n/a	0	1	0	n/a	n/a	0.0	0	0	0	FR2	0	R1074M
2282.014	1.6	1200330	ORIENT	n/a	n/a	n/a	-999	21	[0, 0, 0]	n/a	0	1	0	n/a	n/a	0.0	0	0	0	FR2	0	R1074M
2284.21	4.6	1201428	STIM_ON	n/a	n/a	n/a	-999	21	[0, 0, 0]	n/a	1	1	4600	LX1	LX2	1000.0	50	230	300	FR2	0	R1074M
2284.415	1.6	1201530	WORD	n/a	wordpools/wordpool_EN.txt	SOUP	1	21	[0, 0, 0]	n/a	1	1	4600	LX1	LX2	1000.0	50	230	300	FR2	0	R1074M
2286.848	1.6	1202747	WORD	n/a	wordpools/wordpool_EN.txt	CASH	2	21	[0, 0, 0]	n/a	1	1	4600	LX1	LX2	1000.0	50	230	300	FR2	0	R1074M
2289.299	1.6	1203972	WORD	n/a	wordpools/wordpool_EN.txt	PALM	3	21	[0, 0, 0]	n/a	0	1	0	n/a	n/a	0.0	0	0	0	FR2	0	R1074M
2291.916	1.6	1205280	WORD	n/a	wordpools/wordpool_EN.txt	KEY	4	21	[0, 0, 0]	n/a	0	1	0	n/a	n/a	0.0	0	0	0	FR2	0	R1074M
2294.294	4.6	1206469	STIM_ON	n/a	n/a	n/a	-999	21	[0, 0, 0]	n/a	1	1	4600	LX1	LX2	1000.0	50	230	300	FR2	0	R1074M
2294.501	1.6	1206573	WORD	n/a	wordpools/wordpool_EN.txt	WEB	5	21	[0, 0, 0]	n/a	1	1	4600	LX1	LX2	1000.0	50	230	300	FR2	0	R1074M
2297.017	1.6	1207831	WORD	n/a	wordpools/wordpool_EN.txt	NET	6	21	[0, 0, 0]	n/a	1	1	4600	LX1	LX2	1000.0	50	230	300	FR2	0	R1074M
2299.552	1.6	1209098	WORD	n/a	wordpools/wordpool_EN.txt	OAR	7	21	[0, 0, 0]	n/a	0	1	0	n/a	n/a	0.0	0	0	0	FR2	0	R1074M
2302.101	1.6	1210373	WORD	n/a	wordpools/wordpool_EN.txt	MILK	8	21	[0, 0, 0]	n/a	0	1	0	n/a	n/a	0.0	0	0	0	FR2	0	R1074M
2304.468	4.6	1211556	STIM_ON	n/a	n/a	n/a	-999	21	[0, 0, 0]	n/a	1	1	4600	LX1	LX2	1000.0	50	230	300	FR2	0	R1074M
2304.685	1.6	1211665	WORD	n/a	wordpools/wordpool_EN.txt	HAWK	9	21	[0, 0, 0]	n/a	1	1	4600	LX1	LX2	1000.0	50	230	300	FR2	0	R1074M
2307.302	1.6	1212973	WORD	n/a	wordpools/wordpool_EN.txt	PLANT	10	21	[0, 0, 0]	n/a	1	1	4600	LX1	LX2	1000.0	50	230	300	FR2	0	R1074M
2309.82	1.6	1214232	WORD	n/a	wordpools/wordpool_EN.txt	BAT	11	21	[0, 0, 0]	n/a	0	1	0	n/a	n/a	0.0	0	0	0	FR2	0	R1074M
2312.303	1.6	1215473	WORD	n/a	wordpools/wordpool_EN.txt	CAKE	12	21	[0, 0, 0]	n/a	0	1	0	n/a	n/a	0.0	0	0	0	FR2	0	R1074M
2313.92	0.001	1216282	DISTRACT_START	n/a	n/a	n/a	-999	21	[0, 0, 0]	n/a	0	1	0	n/a	n/a	0.0	0	0	0	FR2	0	R1074M
2313.921	0.016	1216282	START	n/a	n/a	n/a	-999	21	[-999, -999, -999]	n/a	0	1	0	n/a	n/a	0.0	0	0	0	FR2	0	R1074M
2313.937	3.934	1216290	PROB	3.906	n/a	n/a	-999	21	[3, 4, 1]	8	0	1	0	n/a	n/a	0.0	0	0	0	FR2	0	R1074M
2317.871	11.269	1218257	PROB	11.244	n/a	n/a	-999	21	[8, 6, 5]	18	0	1	0	n/a	n/a	0.0	0	0	0	FR2	0	R1074M
2329.14	5.863	1223891	PROB	5.863	n/a	n/a	-999	21	[2, 5, 1]	8	0	1	0	n/a	n/a	0.0	0	0	0	FR2	0	R1074M
2335.003	0.005	1226823	STOP	n/a	n/a	n/a	-999	21	[-999, -999, -999]	n/a	0	1	0	n/a	n/a	0.0	0	0	0	FR2	0	R1074M
2335.008	1.217	1226825	DISTRACT_END	n/a	n/a	n/a	-999	21	[0, 0, 0]	n/a	0	1	0	n/a	n/a	0.0	0	0	0	FR2	0	R1074M
2336.225	5.157	1227434	REC_START	n/a	n/a	n/a	-999	21	[0, 0, 0]	n/a	0	1	0	n/a	n/a	0.0	0	0	0	FR2	0	R1074M
2341.382	24.854	1230012	REC_WORD	5.157	n/a	OAR	-999	21	[0, 0, 0]	n/a	0	1	0	n/a	n/a	0.0	0	0	0	FR2	0	R1074M
2366.236	4.195	1242438	REC_END	n/a	n/a	n/a	-999	21	[0, 0, 0]	n/a	0	1	0	n/a	n/a	0.0	0	0	0	FR2	0	R1074M
2370.431	0.0	1244536	TRIAL	n/a	n/a	n/a	-999	22	[0, 0, 0]	n/a	0	1	0	n/a	n/a	0.0	0	0	0	FR2	0	R1074M
2370.431	10.0	1244536	COUNTDOWN_START	n/a	n/a	n/a	-999	22	[0, 0, 0]	n/a	0	1	0	n/a	n/a	0.0	0	0	0	FR2	0	R1074M
2380.859	0.008	1249749	COUNTDOWN_END	n/a	n/a	n/a	-999	22	[0, 0, 0]	n/a	0	1	0	n/a	n/a	0.0	0	0	0	FR2	0	R1074M
2380.867	1.6	1249753	ORIENT	n/a	n/a	n/a	-999	22	[0, 0, 0]	n/a	0	1	0	n/a	n/a	0.0	0	0	0	FR2	0	R1074M
2383.251	1.6	1250945	WORD	n/a	wordpools/wordpool_EN.txt	SKUNK	1	22	[0, 0, 0]	n/a	0	1	0	n/a	n/a	0.0	0	0	0	FR2	0	R1074M
2385.718	1.6	1252179	WORD	n/a	wordpools/wordpool_EN.txt	SHIP	2	22	[0, 0, 0]	n/a	0	1	0	n/a	n/a	0.0	0	0	0	FR2	0	R1074M
2388.071	4.6	1253355	STIM_ON	n/a	n/a	n/a	-999	22	[0, 0, 0]	n/a	1	1	4600	LX1	LX2	1000.0	50	230	300	FR2	0	R1074M
2388.285	1.6	1253462	WORD	n/a	wordpools/wordpool_EN.txt	BREAD	3	22	[0, 0, 0]	n/a	1	1	4600	LX1	LX2	1000.0	50	230	300	FR2	0	R1074M
2390.785	1.6	1254712	WORD	n/a	wordpools/wordpool_EN.txt	BUSH	4	22	[0, 0, 0]	n/a	1	1	4600	LX1	LX2	1000.0	50	230	300	FR2	0	R1074M
2393.269	1.6	1255954	WORD	n/a	wordpools/wordpool_EN.txt	CLOUD	5	22	[0, 0, 0]	n/a	0	1	0	n/a	n/a	0.0	0	0	0	FR2	0	R1074M
2395.703	1.6	1257171	WORD	n/a	wordpools/wordpool_EN.txt	ROAD	6	22	[0, 0, 0]	n/a	0	1	0	n/a	n/a	0.0	0	0	0	FR2	0	R1074M
2398.114	4.6	1258376	STIM_ON	n/a	n/a	n/a	-999	22	[0, 0, 0]	n/a	1	1	4600	LX1	LX2	1000.0	50	230	300	FR2	0	R1074M
2398.32	1.6	1258479	WORD	n/a	wordpools/wordpool_EN.txt	SLIME	7	22	[0, 0, 0]	n/a	1	1	4600	LX1	LX2	1000.0	50	230	300	FR2	0	R1074M
2400.837	1.6	1259738	WORD	n/a	wordpools/wordpool_EN.txt	LAMB	8	22	[0, 0, 0]	n/a	1	1	4600	LX1	LX2	1000.0	50	230	300	FR2	0	R1074M
2403.304	1.6	1260971	WORD	n/a	wordpools/wordpool_EN.txt	HEART	9	22	[0, 0, 0]	n/a	0	1	0	n/a	n/a	0.0	0	0	0	FR2	0	R1074M
2405.805	1.6	1262222	WORD	n/a	wordpools/wordpool_EN.txt	BRIDGE	10	22	[0, 0, 0]	n/a	0	1	0	n/a	n/a	0.0	0	0	0	FR2	0	R1074M
2408.162	4.6	1263400	STIM_ON	n/a	n/a	n/a	-999	22	[0, 0, 0]	n/a	1	1	4600	LX1	LX2	1000.0	50	230	300	FR2	0	R1074M
2408.372	1.6	1263505	WORD	n/a	wordpools/wordpool_EN.txt	LEAF	11	22	[0, 0, 0]	n/a	1	1	4600	LX1	LX2	1000.0	50	230	300	FR2	0	R1074M
2410.922	1.6	1264780	WORD	n/a	wordpools/wordpool_EN.txt	PURSE	12	22	[0, 0, 0]	n/a	1	1	4600	LX1	LX2	1000.0	50	230	300	FR2	0	R1074M
2412.523	0.001	1265581	DISTRACT_START	n/a	n/a	n/a	-999	22	[0, 0, 0]	n/a	1	1	4600	LX1	LX2	1000.0	50	230	300	FR2	0	R1074M
2412.524	0.017	1265581	START	n/a	n/a	n/a	-999	22	[-999, -999, -999]	n/a	0	1	0	n/a	n/a	0.0	0	0	0	FR2	0	R1074M
2412.541	10.167	1265590	PROB	10.142	n/a	n/a	-999	22	[9, 4, 4]	17	0	1	0	n/a	n/a	0.0	0	0	0	FR2	0	R1074M
2422.708	4.268	1270673	PROB	4.247	n/a	n/a	-999	22	[2, 7, 5]	14	0	1	0	n/a	n/a	0.0	0	0	0	FR2	0	R1074M
2426.976	9.54	1272807	PROB	9.54	n/a	n/a	-999	22	[4, 3, 4]	11	0	1	0	n/a	n/a	0.0	0	0	0	FR2	0	R1074M
2436.516	0.013	1277576	STOP	n/a	n/a	n/a	-999	22	[-999, -999, -999]	n/a	0	1	0	n/a	n/a	0.0	0	0	0	FR2	0	R1074M
2436.529	1.05	1277583	DISTRACT_END	n/a	n/a	n/a	-999	22	[0, 0, 0]	n/a	0	1	0	n/a	n/a	0.0	0	0	0	FR2	0	R1074M
2437.579	1.591	1278108	REC_START	n/a	n/a	n/a	-999	22	[0, 0, 0]	n/a	0	1	0	n/a	n/a	0.0	0	0	0	FR2	0	R1074M
2439.17	28.418	1278903	REC_WORD	1.591	n/a	SKUNK	-999	22	[0, 0, 0]	n/a	0	1	0	n/a	n/a	0.0	0	0	0	FR2	0	R1074M
2467.588	6.48	1293112	REC_END	n/a	n/a	n/a	-999	22	[0, 0, 0]	n/a	0	1	0	n/a	n/a	0.0	0	0	0	FR2	0	R1074M
2474.068	0.0	1296351	TRIAL	n/a	n/a	n/a	-999	23	[0, 0, 0]	n/a	0	1	0	n/a	n/a	0.0	0	0	0	FR2	0	R1074M
2474.068	10.0	1296351	COUNTDOWN_START	n/a	n/a	n/a	-999	23	[0, 0, 0]	n/a	0	1	0	n/a	n/a	0.0	0	0	0	FR2	0	R1074M
2484.496	0.008	1301565	COUNTDOWN_END	n/a	n/a	n/a	-999	23	[0, 0, 0]	n/a	0	1	0	n/a	n/a	0.0	0	0	0	FR2	0	R1074M
2484.504	1.6	1301569	ORIENT	n/a	n/a	n/a	-999	23	[0, 0, 0]	n/a	0	1	0	n/a	n/a	0.0	0	0	0	FR2	0	R1074M
2486.91	4.6	1302772	STIM_ON	n/a	n/a	n/a	-999	23	[0, 0, 0]	n/a	1	1	4600	LX1	LX2	1000.0	50	230	300	FR2	0	R1074M
2487.121	1.6	1302877	WORD	n/a	wordpools/wordpool_EN.txt	SLEEVE	1	23	[0, 0, 0]	n/a	1	1	4600	LX1	LX2	1000.0	50	230	300	FR2	0	R1074M
2489.671	1.6	1304152	WORD	n/a	wordpools/wordpool_EN.txt	SQUARE	2	23	[0, 0, 0]	n/a	1	1	4600	LX1	LX2	1000.0	50	230	300	FR2	0	R1074M
2492.072	1.6	1305353	WORD	n/a	wordpools/wordpool_EN.txt	SHELL	3	23	[0, 0, 0]	n/a	0	1	0	n/a	n/a	0.0	0	0	0	FR2	0	R1074M
2494.556	1.6	1306595	WORD	n/a	wordpools/wordpool_EN.txt	RIB	4	23	[0, 0, 0]	n/a	0	1	0	n/a	n/a	0.0	0	0	0	FR2	0	R1074M
2496.887	4.6	1307760	STIM_ON	n/a	n/a	n/a	-999	23	[0, 0, 0]	n/a	1	1	4600	LX1	LX2	1000.0	50	230	300	FR2	0	R1074M
2497.089	1.6	1307861	WORD	n/a	wordpools/wordpool_EN.txt	SUIT	5	23	[0, 0, 0]	n/a	1	1	4600	LX1	LX2	1000.0	50	230	300	FR2	0	R1074M
2499.624	1.6	1309129	WORD	n/a	wordpools/wordpool_EN.txt	ROOT	6	23	[0, 0, 0]	n/a	1	1	4600	LX1	LX2	1000.0	50	230	300	FR2	0	R1074M
2502.19	1.6	1310412	WORD	n/a	wordpools/wordpool_EN.txt	BOARD	7	23	[0, 0, 0]	n/a	0	1	0	n/a	n/a	0.0	0	0	0	FR2	0	R1074M
2504.757	1.6	1311695	WORD	n/a	wordpools/wordpool_EN.txt	ICE	8	23	[0, 0, 0]	n/a	0	1	0	n/a	n/a	0.0	0	0	0	FR2	0	R1074M
2507.171	4.6	1312902	STIM_ON	n/a	n/a	n/a	-999	23	[0, 0, 0]	n/a	1	1	4600	LX1	LX2	1000.0	50	230	300	FR2	0	R1074M
2507.375	1.6	1313004	WORD	n/a	wordpools/wordpool_EN.txt	HOOK	9	23	[0, 0, 0]	n/a	1	1	4600	LX1	LX2	1000.0	50	230	300	FR2	0	R1074M
2509.925	1.6	1314279	WORD	n/a	wordpools/wordpool_EN.txt	FOOT	10	23	[0, 0, 0]	n/a	1	1	4600	LX1	LX2	1000.0	50	230	300	FR2	0	R1074M
2512.309	1.6	1315471	WORD	n/a	wordpools/wordpool_EN.txt	SEA	11	23	[0, 0, 0]	n/a	0	1	0	n/a	n/a	0.0	0	0	0	FR2	0	R1074M
2514.709	1.6	1316671	WORD	n/a	wordpools/wordpool_EN.txt	GUARD	12	23	[0, 0, 0]	n/a	0	1	0	n/a	n/a	0.0	0	0	0	FR2	0	R1074M
2516.326	0.001	1317479	DISTRACT_START	n/a	n/a	n/a	-999	23	[0, 0, 0]	n/a	0	1	0	n/a	n/a	0.0	0	0	0	FR2	0	R1074M
2516.327	0.016	1317480	START	n/a	n/a	n/a	-999	23	[-999, -999, -999]	n/a	0	1	0	n/a	n/a	0.0	0	0	0	FR2	0	R1074M
2516.343	4.484	1317488	PROB	4.452	n/a	n/a	-999	23	[1, 8, 2]	11	0	1	0	n/a	n/a	0.0	0	0	0	FR2	0	R1074M
2520.827	23.992	1319730	PROB	23.992	n/a	n/a	-999	23	[8, 6, 6]	19	0	1	0	n/a	n/a	0.0	0	0	0	FR2	0	R1074M
2544.819	0.013	1331725	STOP	n/a	n/a	n/a	-999	23	[-999, -999, -999]	n/a	0	1	0	n/a	n/a	0.0	0	0	0	FR2	0	R1074M
2544.832	1.184	1331731	DISTRACT_END	n/a	n/a	n/a	-999	23	[0, 0, 0]	n/a	0	1	0	n/a	n/a	0.0	0	0	0	FR2	0	R1074M
2546.016	2.484	1332323	REC_START	n/a	n/a	n/a	-999	23	[0, 0, 0]	n/a	0	1	0	n/a	n/a	0.0	0	0	0	FR2	0	R1074M
2548.5	27.526	1333565	REC_WORD_VV	2.484	n/a	<>	-999	23	[0, 0, 0]	n/a	0	1	0	n/a	n/a	0.0	0	0	0	FR2	0	R1074M
2576.026	6.431	1347328	REC_END	n/a	n/a	n/a	-999	23	[0, 0, 0]	n/a	0	1	0	n/a	n/a	0.0	0	0	0	FR2	0	R1074M
2582.457	0.0	1350543	TRIAL	n/a	n/a	n/a	-999	24	[0, 0, 0]	n/a	0	1	0	n/a	n/a	0.0	0	0	0	FR2	0	R1074M
2582.457	10.0	1350543	COUNTDOWN_START	n/a	n/a	n/a	-999	24	[0, 0, 0]	n/a	0	1	0	n/a	n/a	0.0	0	0	0	FR2	0	R1074M
2592.885	0.006	1355757	COUNTDOWN_END	n/a	n/a	n/a	-999	24	[0, 0, 0]	n/a	0	1	0	n/a	n/a	0.0	0	0	0	FR2	0	R1074M
2592.891	1.6	1355760	ORIENT	n/a	n/a	n/a	-999	24	[0, 0, 0]	n/a	0	1	0	n/a	n/a	0.0	0	0	0	FR2	0	R1074M
2595.167	4.6	1356897	STIM_ON	n/a	n/a	n/a	-999	24	[0, 0, 0]	n/a	1	1	4600	LX1	LX2	1000.0	50	230	300	FR2	0	R1074M
2595.375	1.6	1357001	WORD	n/a	wordpools/wordpool_EN.txt	OWL	1	24	[0, 0, 0]	n/a	1	1	4600	LX1	LX2	1000.0	50	230	300	FR2	0	R1074M
2597.942	1.6	1358285	WORD	n/a	wordpools/wordpool_EN.txt	SINK	2	24	[0, 0, 0]	n/a	1	1	4600	LX1	LX2	1000.0	50	230	300	FR2	0	R1074M
2600.527	1.6	1359577	WORD	n/a	wordpools/wordpool_EN.txt	BENCH	3	24	[0, 0, 0]	n/a	0	1	0	n/a	n/a	0.0	0	0	0	FR2	0	R1074M
2603.043	1.6	1360835	WORD	n/a	wordpools/wordpool_EN.txt	NEST	4	24	[0, 0, 0]	n/a	0	1	0	n/a	n/a	0.0	0	0	0	FR2	0	R1074M
2605.44	4.6	1362034	STIM_ON	n/a	n/a	n/a	-999	24	[0, 0, 0]	n/a	1	1	4600	LX1	LX2	1000.0	50	230	300	FR2	0	R1074M
2605.644	1.6	1362136	WORD	n/a	wordpools/wordpool_EN.txt	TEA	5	24	[0, 0, 0]	n/a	1	1	4600	LX1	LX2	1000.0	50	230	300	FR2	0	R1074M
2608.144	1.6	1363386	WORD	n/a	wordpools/wordpool_EN.txt	BOAT	6	24	[0, 0, 0]	n/a	1	1	4600	LX1	LX2	1000.0	50	230	300	FR2	0	R1074M
2610.711	1.6	1364669	WORD	n/a	wordpools/wordpool_EN.txt	ANT	7	24	[0, 0, 0]	n/a	0	1	0	n/a	n/a	0.0	0	0	0	FR2	0	R1074M
2613.095	1.6	1365861	WORD	n/a	wordpools/wordpool_EN.txt	ELF	8	24	[0, 0, 0]	n/a	0	1	0	n/a	n/a	0.0	0	0	0	FR2	0	R1074M
2615.455	4.6	1367041	STIM_ON	n/a	n/a	n/a	-999	24	[0, 0, 0]	n/a	1	1	4600	LX1	LX2	1000.0	50	230	300	FR2	0	R1074M
2615.662	1.6	1367144	WORD	n/a	wordpools/wordpool_EN.txt	WAVE	9	24	[0, 0, 0]	n/a	1	1	4600	LX1	LX2	1000.0	50	230	300	FR2	0	R1074M
2618.046	1.6	1368336	WORD	n/a	wordpools/wordpool_EN.txt	NOSE	10	24	[0, 0, 0]	n/a	1	1	4600	LX1	LX2	1000.0	50	230	300	FR2	0	R1074M
2620.497	1.6	1369562	WORD	n/a	wordpools/wordpool_EN.txt	TRASH	11	24	[0, 0, 0]	n/a	0	1	0	n/a	n/a	0.0	0	0	0	FR2	0	R1074M
2622.93	1.6	1370778	WORD	n/a	wordpools/wordpool_EN.txt	FOG	12	24	[0, 0, 0]	n/a	0	1	0	n/a	n/a	0.0	0	0	0	FR2	0	R1074M
2624.531	0.001	1371579	DISTRACT_START	n/a	n/a	n/a	-999	24	[0, 0, 0]	n/a	0	1	0	n/a	n/a	0.0	0	0	0	FR2	0	R1074M
2624.532	0.016	1371579	START	n/a	n/a	n/a	-999	24	[-999, -999, -999]	n/a	0	1	0	n/a	n/a	0.0	0	0	0	FR2	0	R1074M
2624.548	8.134	1371587	PROB	8.111	n/a	n/a	-999	24	[4, 6, 5]	15	0	1	0	n/a	n/a	0.0	0	0	0	FR2	0	R1074M
2632.682	4.218	1375654	PROB	4.193	n/a	n/a	-999	24	[4, 7, 1]	12	0	1	0	n/a	n/a	0.0	0	0	0	FR2	0	R1074M
2636.9	9.159	1377763	PROB	9.159	n/a	n/a	-999	24	[9, 8, 5]	22	0	1	0	n/a	n/a	0.0	0	0	0	FR2	0	R1074M
2646.059	0.009	1382342	STOP	n/a	n/a	n/a	-999	24	[-999, -999, -999]	n/a	0	1	0	n/a	n/a	0.0	0	0	0	FR2	0	R1074M
2646.068	1.168	1382347	DISTRACT_END	n/a	n/a	n/a	-999	24	[0, 0, 0]	n/a	0	1	0	n/a	n/a	0.0	0	0	0	FR2	0	R1074M
2647.236	6.418	1382931	REC_START	n/a	n/a	n/a	-999	24	[0, 0, 0]	n/a	0	1	0	n/a	n/a	0.0	0	0	0	FR2	0	R1074M
2653.654	2.981	1386139	REC_WORD	6.418	n/a	OWL	-999	24	[0, 0, 0]	n/a	0	1	0	n/a	n/a	0.0	0	0	0	FR2	0	R1074M
2656.635	3.828	1387630	REC_WORD	9.399	n/a	SINK	-999	24	[0, 0, 0]	n/a	0	1	0	n/a	n/a	0.0	0	0	0	FR2	0	R1074M
2660.463	16.782	1389544	REC_WORD	13.227	n/a	BOAT	-999	24	[0, 0, 0]	n/a	0	1	0	n/a	n/a	0.0	0	0	0	FR2	0	R1074M
2677.245	6.847	1397934	REC_END	n/a	n/a	n/a	-999	24	[0, 0, 0]	n/a	0	1	0	n/a	n/a	0.0	0	0	0	FR2	0	R1074M
2684.092	0.0	1401357	TRIAL	n/a	n/a	n/a	-999	25	[0, 0, 0]	n/a	0	1	0	n/a	n/a	0.0	0	0	0	FR2	0	R1074M
2684.092	10.0	1401357	COUNTDOWN_START	n/a	n/a	n/a	-999	25	[0, 0, 0]	n/a	0	1	0	n/a	n/a	0.0	0	0	0	FR2	0	R1074M
2694.52	0.008	1406571	COUNTDOWN_END	n/a	n/a	n/a	-999	25	[0, 0, 0]	n/a	0	1	0	n/a	n/a	0.0	0	0	0	FR2	0	R1074M
2694.528	1.6	1406575	ORIENT	n/a	n/a	n/a	-999	25	[0, 0, 0]	n/a	0	1	0	n/a	n/a	0.0	0	0	0	FR2	0	R1074M
2697.011	1.6	1407817	WORD	n/a	wordpools/wordpool_EN.txt	JUDGE	1	25	[0, 0, 0]	n/a	0	1	0	n/a	n/a	0.0	0	0	0	FR2	0	R1074M
2699.429	1.6	1409026	WORD	n/a	wordpools/wordpool_EN.txt	SOCK	2	25	[0, 0, 0]	n/a	0	1	0	n/a	n/a	0.0	0	0	0	FR2	0	R1074M
2701.662	4.6	1410142	STIM_ON	n/a	n/a	n/a	-999	25	[0, 0, 0]	n/a	1	1	4600	LX1	LX2	1000.0	50	230	300	FR2	0	R1074M
2701.879	1.6	1410250	WORD	n/a	wordpools/wordpool_EN.txt	FISH	3	25	[0, 0, 0]	n/a	1	1	4600	LX1	LX2	1000.0	50	230	300	FR2	0	R1074M
2704.329	1.6	1411475	WORD	n/a	wordpools/wordpool_EN.txt	PLANE	4	25	[0, 0, 0]	n/a	1	1	4600	LX1	LX2	1000.0	50	230	300	FR2	0	R1074M
2706.846	1.6	1412734	WORD	n/a	wordpools/wordpool_EN.txt	SCHOOL	5	25	[0, 0, 0]	n/a	0	1	0	n/a	n/a	0.0	0	0	0	FR2	0	R1074M
2709.214	1.6	1413918	WORD	n/a	wordpools/wordpool_EN.txt	THUMB	6	25	[0, 0, 0]	n/a	0	1	0	n/a	n/a	0.0	0	0	0	FR2	0	R1074M
2711.426	4.6	1415024	STIM_ON	n/a	n/a	n/a	-999	25	[0, 0, 0]	n/a	1	1	4600	LX1	LX2	1000.0	50	230	300	FR2	0	R1074M
2711.632	1.6	1415127	WORD	n/a	wordpools/wordpool_EN.txt	SPOON	7	25	[0, 0, 0]	n/a	1	1	4600	LX1	LX2	1000.0	50	230	300	FR2	0	R1074M
2714.215	1.6	1416418	WORD	n/a	wordpools/wordpool_EN.txt	BATH	8	25	[0, 0, 0]	n/a	1	1	4600	LX1	LX2	1000.0	50	230	300	FR2	0	R1074M
2716.832	1.6	1417727	WORD	n/a	wordpools/wordpool_EN.txt	SALT	9	25	[0, 0, 0]	n/a	0	1	0	n/a	n/a	0.0	0	0	0	FR2	0	R1074M
2719.399	1.6	1419010	WORD	n/a	wordpools/wordpool_EN.txt	STORE	10	25	[0, 0, 0]	n/a	0	1	0	n/a	n/a	0.0	0	0	0	FR2	0	R1074M
2721.789	4.6	1420205	STIM_ON	n/a	n/a	n/a	-999	25	[0, 0, 0]	n/a	1	1	4600	LX1	LX2	1000.0	50	230	300	FR2	0	R1074M
2722.0	1.6	1420310	WORD	n/a	wordpools/wordpool_EN.txt	CORN	11	25	[0, 0, 0]	n/a	1	1	4600	LX1	LX2	1000.0	50	230	300	FR2	0	R1074M
2724.601	1.6	1421611	WORD	n/a	wordpools/wordpool_EN.txt	CUBE	12	25	[0, 0, 0]	n/a	1	1	4600	LX1	LX2	1000.0	50	230	300	FR2	0	R1074M
2726.217	0.001	1422419	DISTRACT_START	n/a	n/a	n/a	-999	25	[0, 0, 0]	n/a	1	1	4600	LX1	LX2	1000.0	50	230	300	FR2	0	R1074M
2726.218	0.016	1422419	START	n/a	n/a	n/a	-999	25	[-999, -999, -999]	n/a	0	1	0	n/a	n/a	0.0	0	0	0	FR2	0	R1074M
2726.234	6.918	1422427	PROB	6.889	n/a	n/a	-999	25	[8, 5, 1]	14	0	1	0	n/a	n/a	0.0	0	0	0	FR2	0	R1074M
2733.152	5.101	1425886	PROB	5.075	n/a	n/a	-999	25	[6, 4, 4]	14	0	1	0	n/a	n/a	0.0	0	0	0	FR2	0	R1074M
2738.253	10.726	1428436	PROB	10.726	n/a	n/a	-999	25	[8, 7, 4]	19	0	1	0	n/a	n/a	0.0	0	0	0	FR2	0	R1074M
2748.979	0.009	1433799	STOP	n/a	n/a	n/a	-999	25	[-999, -999, -999]	n/a	0	1	0	n/a	n/a	0.0	0	0	0	FR2	0	R1074M
2748.988	1.168	1433804	DISTRACT_END	n/a	n/a	n/a	-999	25	[0, 0, 0]	n/a	0	1	0	n/a	n/a	0.0	0	0	0	FR2	0	R1074M
2750.156	1.335	1434388	REC_START	n/a	n/a	n/a	-999	25	[0, 0, 0]	n/a	0	1	0	n/a	n/a	0.0	0	0	0	FR2	0	R1074M
2751.491	0.745	1435055	REC_WORD	1.335	n/a	CORN	-999	25	[0, 0, 0]	n/a	0	1	0	n/a	n/a	0.0	0	0	0	FR2	0	R1074M
2752.236	9.773	1435428	REC_WORD	2.08	n/a	CUBE	-999	25	[0, 0, 0]	n/a	0	1	0	n/a	n/a	0.0	0	0	0	FR2	0	R1074M
2762.009	15.385	1440314	REC_WORD	11.853	n/a	SALT	-999	25	[0, 0, 0]	n/a	0	1	0	n/a	n/a	0.0	0	0	0	FR2	0	R1074M
2777.394	2.772	1448006	REC_WORD	27.238	n/a	CRUSH	-999	25	[0, 0, 0]	n/a	0	1	0	n/a	n/a	0.0	0	0	0	FR2	0	R1074M
2780.166	24.167	1449392	REC_END	n/a	n/a	n/a	-999	25	[0, 0, 0]	n/a	0	1	0	n/a	n/a	0.0	0	0	0	FR2	0	R1074M
2804.333	0.0	-1	SESS_END	n/a	n/a	n/a	-999	25	[0, 0, 0]	n/a	0	1	0	n/a	n/a	0.0	0	0	0	FR2	0	R1074M
