onset	duration	sample	trial_type	response_time	stim_file	item_name	serialpos	recalled	list	test	answer	stimulation	stim_list	stim_duration	anode_label	cathode_label	amplitude	pulse_freq	n_pulses	pulse_width	experiment	session	subject
0.0	23.228	112407	SESS_START	n/a	n/a	n/a	-999	0	-999	[0, 0, 0]	n/a	0	0	0	n/a	n/a	0.0	0	0	0	FR2	3	R1030J
23.228	10.0	135633	COUNTDOWN_START	n/a	n/a	n/a	-999	0	-999	[0, 0, 0]	n/a	0	0	0	n/a	n/a	0.0	0	0	0	FR2	3	R1030J
33.656	3.714	146060	COUNTDOWN_END	n/a	n/a	n/a	-999	0	-999	[0, 0, 0]	n/a	0	0	0	n/a	n/a	0.0	0	0	0	FR2	3	R1030J
37.37	1.6	149774	PRACTICE_WORD	n/a	n/a	CHEST	1	0	-1	[0, 0, 0]	n/a	0	0	0	n/a	n/a	0.0	0	0	0	FR2	3	R1030J
39.841	1.6	152244	PRACTICE_WORD	n/a	n/a	COTTON	2	0	-1	[0, 0, 0]	n/a	0	0	0	n/a	n/a	0.0	0	0	0	FR2	3	R1030J
42.412	1.6	154815	PRACTICE_WORD	n/a	n/a	WATCH	3	0	-1	[0, 0, 0]	n/a	0	0	0	n/a	n/a	0.0	0	0	0	FR2	3	R1030J
44.998	1.6	157401	PRACTICE_WORD	n/a	n/a	TONGUE	4	0	-1	[0, 0, 0]	n/a	0	0	0	n/a	n/a	0.0	0	0	0	FR2	3	R1030J
47.42	1.6	159823	PRACTICE_WORD	n/a	n/a	IRON	5	0	-1	[0, 0, 0]	n/a	0	0	0	n/a	n/a	0.0	0	0	0	FR2	3	R1030J
49.908	1.6	162310	PRACTICE_WORD	n/a	n/a	BEAM	6	0	-1	[0, 0, 0]	n/a	0	0	0	n/a	n/a	0.0	0	0	0	FR2	3	R1030J
52.512	1.6	164914	PRACTICE_WORD	n/a	n/a	FLOOD	7	0	-1	[0, 0, 0]	n/a	0	0	0	n/a	n/a	0.0	0	0	0	FR2	3	R1030J
54.899	1.6	167301	PRACTICE_WORD	n/a	n/a	RING	8	0	-1	[0, 0, 0]	n/a	0	0	0	n/a	n/a	0.0	0	0	0	FR2	3	R1030J
57.302	1.6	169704	PRACTICE_WORD	n/a	n/a	CAMEL	9	0	-1	[0, 0, 0]	n/a	0	0	0	n/a	n/a	0.0	0	0	0	FR2	3	R1030J
59.825	1.6	172226	PRACTICE_WORD	n/a	n/a	RHINO	10	0	-1	[0, 0, 0]	n/a	0	0	0	n/a	n/a	0.0	0	0	0	FR2	3	R1030J
62.412	1.6	174813	PRACTICE_WORD	n/a	n/a	ATTIC	11	0	-1	[0, 0, 0]	n/a	0	0	0	n/a	n/a	0.0	0	0	0	FR2	3	R1030J
64.951	1.6	177352	PRACTICE_WORD	n/a	n/a	WAGON	12	0	-1	[0, 0, 0]	n/a	0	0	0	n/a	n/a	0.0	0	0	0	FR2	3	R1030J
66.569	0.0	178970	PRACTICE_DISTRACT_START	n/a	n/a	n/a	-999	0	-1	[0, 0, 0]	n/a	0	0	0	n/a	n/a	0.0	0	0	0	FR2	3	R1030J
66.569	0.05	178970	START	n/a	n/a	n/a	-999	0	-1	[-999, -999, -999]	n/a	0	0	0	n/a	n/a	0.0	0	0	0	FR2	3	R1030J
66.619	2.321	179020	PROB	2.288	n/a	n/a	-999	0	-1	[2, 1, 5]	8	0	0	0	n/a	n/a	0.0	0	0	0	FR2	3	R1030J
68.94	2.838	181340	PROB	2.807	n/a	n/a	-999	0	-1	[9, 2, 8]	19	0	0	0	n/a	n/a	0.0	0	0	0	FR2	3	R1030J
71.778	2.269	184178	PROB	2.248	n/a	n/a	-999	0	-1	[3, 6, 2]	11	0	0	0	n/a	n/a	0.0	0	0	0	FR2	3	R1030J
74.047	2.339	186447	PROB	2.299	n/a	n/a	-999	0	-1	[3, 6, 6]	15	0	0	0	n/a	n/a	0.0	0	0	0	FR2	3	R1030J
76.386	2.353	188786	PROB	2.321	n/a	n/a	-999	0	-1	[2, 9, 9]	20	0	0	0	n/a	n/a	0.0	0	0	0	FR2	3	R1030J
78.739	2.554	191138	PROB	2.519	n/a	n/a	-999	0	-1	[2, 6, 4]	12	0	0	0	n/a	n/a	0.0	0	0	0	FR2	3	R1030J
81.293	1.753	193692	PROB	1.725	n/a	n/a	-999	0	-1	[1, 6, 1]	8	0	0	0	n/a	n/a	0.0	0	0	0	FR2	3	R1030J
83.046	1.837	195445	PROB	1.813	n/a	n/a	-999	0	-1	[1, 1, 4]	6	0	0	0	n/a	n/a	0.0	0	0	0	FR2	3	R1030J
84.883	1.888	197282	PROB	1.888	n/a	n/a	-999	0	-1	[7, 1, 1]	9	0	0	0	n/a	n/a	0.0	0	0	0	FR2	3	R1030J
86.771	0.015	199170	STOP	n/a	n/a	n/a	-999	0	-1	[-999, -999, -999]	n/a	0	0	0	n/a	n/a	0.0	0	0	0	FR2	3	R1030J
86.786	0.519	199185	PRACTICE_DISTRACT_END	n/a	n/a	n/a	-999	0	-1	[0, 0, 0]	n/a	0	0	0	n/a	n/a	0.0	0	0	0	FR2	3	R1030J
87.305	30.516	199704	PRACTICE_REC_START	n/a	n/a	n/a	-999	0	-1	[0, 0, 0]	n/a	0	0	0	n/a	n/a	0.0	0	0	0	FR2	3	R1030J
117.821	7.113	230216	PRACTICE_REC_END	n/a	n/a	n/a	-999	0	-1	[0, 0, 0]	n/a	0	0	0	n/a	n/a	0.0	0	0	0	FR2	3	R1030J
124.934	10.0	237329	COUNTDOWN_START	n/a	n/a	n/a	-999	0	1	[0, 0, 0]	n/a	0	1	0	n/a	n/a	0.0	0	0	0	FR2	3	R1030J
124.934	10.428	237329	TRIAL	n/a	n/a	n/a	-999	0	1	[0, 0, 0]	n/a	0	1	0	n/a	n/a	0.0	0	0	0	FR2	3	R1030J
135.362	0.006	247756	COUNTDOWN_END	n/a	n/a	n/a	-999	0	1	[0, 0, 0]	n/a	0	1	0	n/a	n/a	0.0	0	0	0	FR2	3	R1030J
135.368	1.6	247762	ORIENT	n/a	n/a	n/a	-999	0	1	[0, 0, 0]	n/a	0	1	0	n/a	n/a	0.0	0	0	0	FR2	3	R1030J
137.653	4.6	250046	STIM_ON	n/a	n/a	n/a	-999	0	1	[0, 0, 0]	n/a	1	1	4600	LQ2	LQ3	500.0	50	230	300	FR2	3	R1030J
137.872	1.6	250265	WORD	n/a	wordpools/wordpool_EN.txt	FACE	1	0	1	[0, 0, 0]	n/a	1	1	4600	LQ2	LQ3	500.0	50	230	300	FR2	3	R1030J
140.275	1.6	252668	WORD	n/a	wordpools/wordpool_EN.txt	GUARD	2	0	1	[0, 0, 0]	n/a	1	1	4600	LQ2	LQ3	500.0	50	230	300	FR2	3	R1030J
142.68	1.6	255073	WORD	n/a	wordpools/wordpool_EN.txt	STEAK	3	0	1	[0, 0, 0]	n/a	0	1	0	n/a	n/a	0.0	0	0	0	FR2	3	R1030J
145.2	1.6	257593	WORD	n/a	wordpools/wordpool_EN.txt	FLAME	4	0	1	[0, 0, 0]	n/a	0	1	0	n/a	n/a	0.0	0	0	0	FR2	3	R1030J
147.421	4.6	259813	STIM_ON	n/a	n/a	n/a	-999	0	1	[0, 0, 0]	n/a	1	1	4600	LQ2	LQ3	500.0	50	230	300	FR2	3	R1030J
147.639	1.6	260031	WORD	n/a	wordpools/wordpool_EN.txt	VASE	5	0	1	[0, 0, 0]	n/a	1	1	4600	LQ2	LQ3	500.0	50	230	300	FR2	3	R1030J
150.075	1.6	262467	WORD	n/a	wordpools/wordpool_EN.txt	TEA	6	0	1	[0, 0, 0]	n/a	1	1	4600	LQ2	LQ3	500.0	50	230	300	FR2	3	R1030J
152.63	1.6	265022	WORD	n/a	wordpools/wordpool_EN.txt	COUCH	7	0	1	[0, 0, 0]	n/a	0	1	0	n/a	n/a	0.0	0	0	0	FR2	3	R1030J
155.15	1.6	267542	WORD	n/a	wordpools/wordpool_EN.txt	BOY	8	1	1	[0, 0, 0]	n/a	0	1	0	n/a	n/a	0.0	0	0	0	FR2	3	R1030J
157.493	4.6	269884	STIM_ON	n/a	n/a	n/a	-999	0	1	[0, 0, 0]	n/a	1	1	4600	LQ2	LQ3	500.0	50	230	300	FR2	3	R1030J
157.706	1.6	270097	WORD	n/a	wordpools/wordpool_EN.txt	ARM	9	1	1	[0, 0, 0]	n/a	1	1	4600	LQ2	LQ3	500.0	50	230	300	FR2	3	R1030J
160.292	1.6	272683	WORD	n/a	wordpools/wordpool_EN.txt	STOOL	10	0	1	[0, 0, 0]	n/a	1	1	4600	LQ2	LQ3	500.0	50	230	300	FR2	3	R1030J
162.814	1.6	275205	WORD	n/a	wordpools/wordpool_EN.txt	CAKE	11	0	1	[0, 0, 0]	n/a	0	1	0	n/a	n/a	0.0	0	0	0	FR2	3	R1030J
165.351	1.6	277742	WORD	n/a	wordpools/wordpool_EN.txt	WHALE	12	1	1	[0, 0, 0]	n/a	0	1	0	n/a	n/a	0.0	0	0	0	FR2	3	R1030J
166.97	0.001	279361	DISTRACT_START	n/a	n/a	n/a	-999	0	1	[0, 0, 0]	n/a	0	1	0	n/a	n/a	0.0	0	0	0	FR2	3	R1030J
166.971	0.016	279362	START	n/a	n/a	n/a	-999	0	1	[-999, -999, -999]	n/a	0	1	0	n/a	n/a	0.0	0	0	0	FR2	3	R1030J
166.987	2.889	279378	PROB	2.856	n/a	n/a	-999	0	1	[8, 1, 1]	10	0	1	0	n/a	n/a	0.0	0	0	0	FR2	3	R1030J
169.876	1.703	282266	PROB	1.679	n/a	n/a	-999	0	1	[1, 4, 1]	6	0	1	0	n/a	n/a	0.0	0	0	0	FR2	3	R1030J
171.579	2.47	283969	PROB	2.447	n/a	n/a	-999	0	1	[5, 4, 8]	17	0	1	0	n/a	n/a	0.0	0	0	0	FR2	3	R1030J
174.049	2.472	286439	PROB	2.442	n/a	n/a	-999	0	1	[6, 1, 7]	14	0	1	0	n/a	n/a	0.0	0	0	0	FR2	3	R1030J
176.521	2.12	288911	PROB	2.098	n/a	n/a	-999	0	1	[8, 7, 3]	18	0	1	0	n/a	n/a	0.0	0	0	0	FR2	3	R1030J
178.641	3.239	291030	PROB	3.202	n/a	n/a	-999	0	1	[8, 9, 9]	26	0	1	0	n/a	n/a	0.0	0	0	0	FR2	3	R1030J
181.88	3.304	294269	PROB	3.266	n/a	n/a	-999	0	1	[5, 1, 3]	9	0	1	0	n/a	n/a	0.0	0	0	0	FR2	3	R1030J
185.184	2.539	297573	PROB	2.539	n/a	n/a	-999	0	1	[5, 1, 4]	10	0	1	0	n/a	n/a	0.0	0	0	0	FR2	3	R1030J
187.723	0.017	300111	STOP	n/a	n/a	n/a	-999	0	1	[-999, -999, -999]	n/a	0	1	0	n/a	n/a	0.0	0	0	0	FR2	3	R1030J
187.74	1.23	300128	DISTRACT_END	n/a	n/a	n/a	-999	0	1	[0, 0, 0]	n/a	0	1	0	n/a	n/a	0.0	0	0	0	FR2	3	R1030J
188.97	2.477	301358	REC_START	n/a	n/a	n/a	-999	0	1	[0, 0, 0]	n/a	0	1	0	n/a	n/a	0.0	0	0	0	FR2	3	R1030J
191.447	2.221	303835	REC_WORD	2.477	n/a	WHALE	12	1	1	[0, 0, 0]	n/a	0	1	0	n/a	n/a	0.0	0	0	0	FR2	3	R1030J
193.668	5.331	306056	REC_WORD	4.698	n/a	ARM	9	1	1	[0, 0, 0]	n/a	0	1	0	n/a	n/a	0.0	0	0	0	FR2	3	R1030J
198.999	2.659	311386	REC_WORD	10.029	n/a	ATTIC	-999	0	1	[0, 0, 0]	n/a	0	1	0	n/a	n/a	0.0	0	0	0	FR2	3	R1030J
201.658	1.377	314045	REC_WORD	12.688	n/a	RHINO	-999	0	1	[0, 0, 0]	n/a	0	1	0	n/a	n/a	0.0	0	0	0	FR2	3	R1030J
203.035	15.904	315422	REC_WORD	14.065	n/a	BOY	8	1	1	[0, 0, 0]	n/a	0	1	0	n/a	n/a	0.0	0	0	0	FR2	3	R1030J
218.939	2.591	331324	REC_END	n/a	n/a	n/a	-999	0	1	[0, 0, 0]	n/a	0	1	0	n/a	n/a	0.0	0	0	0	FR2	3	R1030J
221.53	0.0	333915	TRIAL	n/a	n/a	n/a	-999	0	2	[0, 0, 0]	n/a	0	1	0	n/a	n/a	0.0	0	0	0	FR2	3	R1030J
221.53	10.0	333915	COUNTDOWN_START	n/a	n/a	n/a	-999	0	2	[0, 0, 0]	n/a	0	1	0	n/a	n/a	0.0	0	0	0	FR2	3	R1030J
231.958	0.022	344342	COUNTDOWN_END	n/a	n/a	n/a	-999	0	2	[0, 0, 0]	n/a	0	1	0	n/a	n/a	0.0	0	0	0	FR2	3	R1030J
231.98	1.6	344364	ORIENT	n/a	n/a	n/a	-999	0	2	[0, 0, 0]	n/a	0	1	0	n/a	n/a	0.0	0	0	0	FR2	3	R1030J
234.435	1.6	346819	WORD	n/a	wordpools/wordpool_EN.txt	TRAIN	1	1	2	[0, 0, 0]	n/a	0	1	0	n/a	n/a	0.0	0	0	0	FR2	3	R1030J
237.023	1.6	349406	WORD	n/a	wordpools/wordpool_EN.txt	ZOO	2	0	2	[0, 0, 0]	n/a	0	1	0	n/a	n/a	0.0	0	0	0	FR2	3	R1030J
239.284	4.6	351667	STIM_ON	n/a	n/a	n/a	-999	0	2	[0, 0, 0]	n/a	1	1	4600	LQ2	LQ3	500.0	50	230	300	FR2	3	R1030J
239.493	1.6	351876	WORD	n/a	wordpools/wordpool_EN.txt	STORM	3	0	2	[0, 0, 0]	n/a	1	1	4600	LQ2	LQ3	500.0	50	230	300	FR2	3	R1030J
242.08	1.6	354463	WORD	n/a	wordpools/wordpool_EN.txt	JUDGE	4	0	2	[0, 0, 0]	n/a	1	1	4600	LQ2	LQ3	500.0	50	230	300	FR2	3	R1030J
244.535	1.6	356918	WORD	n/a	wordpools/wordpool_EN.txt	GOLD	5	0	2	[0, 0, 0]	n/a	0	1	0	n/a	n/a	0.0	0	0	0	FR2	3	R1030J
247.088	1.6	359470	WORD	n/a	wordpools/wordpool_EN.txt	BED	6	0	2	[0, 0, 0]	n/a	0	1	0	n/a	n/a	0.0	0	0	0	FR2	3	R1030J
249.317	4.6	361699	STIM_ON	n/a	n/a	n/a	-999	0	2	[0, 0, 0]	n/a	1	1	4600	LQ2	LQ3	500.0	50	230	300	FR2	3	R1030J
249.527	1.6	361909	WORD	n/a	wordpools/wordpool_EN.txt	SHIRT	7	0	2	[0, 0, 0]	n/a	1	1	4600	LQ2	LQ3	500.0	50	230	300	FR2	3	R1030J
252.097	1.6	364479	WORD	n/a	wordpools/wordpool_EN.txt	SAIL	8	0	2	[0, 0, 0]	n/a	1	1	4600	LQ2	LQ3	500.0	50	230	300	FR2	3	R1030J
254.535	1.6	366917	WORD	n/a	wordpools/wordpool_EN.txt	CHIEF	9	0	2	[0, 0, 0]	n/a	0	1	0	n/a	n/a	0.0	0	0	0	FR2	3	R1030J
257.122	1.6	369503	WORD	n/a	wordpools/wordpool_EN.txt	CAPE	10	0	2	[0, 0, 0]	n/a	0	1	0	n/a	n/a	0.0	0	0	0	FR2	3	R1030J
259.447	4.6	371828	STIM_ON	n/a	n/a	n/a	-999	0	2	[0, 0, 0]	n/a	1	1	4600	LQ2	LQ3	500.0	50	230	300	FR2	3	R1030J
259.661	1.6	372042	WORD	n/a	wordpools/wordpool_EN.txt	BEAR	11	1	2	[0, 0, 0]	n/a	1	1	4600	LQ2	LQ3	500.0	50	230	300	FR2	3	R1030J
262.147	1.6	374528	WORD	n/a	wordpools/wordpool_EN.txt	WAND	12	1	2	[0, 0, 0]	n/a	1	1	4600	LQ2	LQ3	500.0	50	230	300	FR2	3	R1030J
263.751	0.001	376132	DISTRACT_START	n/a	n/a	n/a	-999	0	2	[0, 0, 0]	n/a	1	1	4600	LQ2	LQ3	500.0	50	230	300	FR2	3	R1030J
263.752	0.015	376133	START	n/a	n/a	n/a	-999	0	2	[-999, -999, -999]	n/a	0	1	0	n/a	n/a	0.0	0	0	0	FR2	3	R1030J
263.767	2.688	376148	PROB	2.66	n/a	n/a	-999	0	2	[4, 6, 9]	19	0	1	0	n/a	n/a	0.0	0	0	0	FR2	3	R1030J
266.455	1.987	378835	PROB	1.964	n/a	n/a	-999	0	2	[1, 6, 6]	13	0	1	0	n/a	n/a	0.0	0	0	0	FR2	3	R1030J
268.442	1.802	380822	PROB	1.776	n/a	n/a	-999	0	2	[3, 1, 1]	5	0	1	0	n/a	n/a	0.0	0	0	0	FR2	3	R1030J
270.244	2.955	382624	PROB	2.918	n/a	n/a	-999	0	2	[3, 9, 6]	18	0	1	0	n/a	n/a	0.0	0	0	0	FR2	3	R1030J
273.199	2.689	385579	PROB	2.66	n/a	n/a	-999	0	2	[5, 8, 2]	15	0	1	0	n/a	n/a	0.0	0	0	0	FR2	3	R1030J
275.888	2.086	388268	PROB	2.059	n/a	n/a	-999	0	2	[3, 7, 7]	17	0	1	0	n/a	n/a	0.0	0	0	0	FR2	3	R1030J
277.974	2.638	390353	PROB	2.614	n/a	n/a	-999	0	2	[6, 5, 4]	15	0	1	0	n/a	n/a	0.0	0	0	0	FR2	3	R1030J
280.612	3.183	392991	PROB	3.183	n/a	n/a	-999	0	2	[5, 6, 9]	20	0	1	0	n/a	n/a	0.0	0	0	0	FR2	3	R1030J
283.795	0.006	396174	STOP	n/a	n/a	n/a	-999	0	2	[-999, -999, -999]	n/a	0	1	0	n/a	n/a	0.0	0	0	0	FR2	3	R1030J
283.801	1.086	396180	DISTRACT_END	n/a	n/a	n/a	-999	0	2	[0, 0, 0]	n/a	0	1	0	n/a	n/a	0.0	0	0	0	FR2	3	R1030J
284.887	7.421	397266	REC_START	n/a	n/a	n/a	-999	0	2	[0, 0, 0]	n/a	0	1	0	n/a	n/a	0.0	0	0	0	FR2	3	R1030J
292.308	3.127	404686	REC_WORD_VV	7.421	n/a	<>	-999	0	2	[0, 0, 0]	n/a	0	1	0	n/a	n/a	0.0	0	0	0	FR2	3	R1030J
295.435	6.644	407813	REC_WORD	10.548	n/a	TRAIN	1	1	2	[0, 0, 0]	n/a	0	1	0	n/a	n/a	0.0	0	0	0	FR2	3	R1030J
302.079	8.825	414456	REC_WORD	17.192	n/a	BEAR	11	1	2	[0, 0, 0]	n/a	0	1	0	n/a	n/a	0.0	0	0	0	FR2	3	R1030J
310.904	3.498	423280	REC_WORD	26.017	n/a	MAT	-999	0	2	[0, 0, 0]	n/a	0	1	0	n/a	n/a	0.0	0	0	0	FR2	3	R1030J
314.402	0.499	426778	REC_WORD	29.515	n/a	WAND	12	1	2	[0, 0, 0]	n/a	0	1	0	n/a	n/a	0.0	0	0	0	FR2	3	R1030J
314.901	2.272	427277	REC_END	n/a	n/a	n/a	-999	0	2	[0, 0, 0]	n/a	0	1	0	n/a	n/a	0.0	0	0	0	FR2	3	R1030J
317.173	0.0	429548	TRIAL	n/a	n/a	n/a	-999	0	3	[0, 0, 0]	n/a	0	0	0	n/a	n/a	0.0	0	0	0	FR2	3	R1030J
317.173	10.0	429548	COUNTDOWN_START	n/a	n/a	n/a	-999	0	3	[0, 0, 0]	n/a	0	0	0	n/a	n/a	0.0	0	0	0	FR2	3	R1030J
327.601	0.007	439975	COUNTDOWN_END	n/a	n/a	n/a	-999	0	3	[0, 0, 0]	n/a	0	0	0	n/a	n/a	0.0	0	0	0	FR2	3	R1030J
327.608	1.6	439982	ORIENT	n/a	n/a	n/a	-999	0	3	[0, 0, 0]	n/a	0	0	0	n/a	n/a	0.0	0	0	0	FR2	3	R1030J
330.145	1.6	442519	WORD	n/a	wordpools/wordpool_EN.txt	PEN	1	0	3	[0, 0, 0]	n/a	0	0	0	n/a	n/a	0.0	0	0	0	FR2	3	R1030J
332.717	1.6	445091	WORD	n/a	wordpools/wordpool_EN.txt	INK	2	0	3	[0, 0, 0]	n/a	0	0	0	n/a	n/a	0.0	0	0	0	FR2	3	R1030J
335.253	1.6	447627	WORD	n/a	wordpools/wordpool_EN.txt	TOY	3	1	3	[0, 0, 0]	n/a	0	0	0	n/a	n/a	0.0	0	0	0	FR2	3	R1030J
337.792	1.6	450165	WORD	n/a	wordpools/wordpool_EN.txt	BENCH	4	0	3	[0, 0, 0]	n/a	0	0	0	n/a	n/a	0.0	0	0	0	FR2	3	R1030J
340.262	1.6	452635	WORD	n/a	wordpools/wordpool_EN.txt	MILK	5	0	3	[0, 0, 0]	n/a	0	0	0	n/a	n/a	0.0	0	0	0	FR2	3	R1030J
342.7	1.6	455073	WORD	n/a	wordpools/wordpool_EN.txt	EAR	6	0	3	[0, 0, 0]	n/a	0	0	0	n/a	n/a	0.0	0	0	0	FR2	3	R1030J
345.12	1.6	457493	WORD	n/a	wordpools/wordpool_EN.txt	OWL	7	1	3	[0, 0, 0]	n/a	0	0	0	n/a	n/a	0.0	0	0	0	FR2	3	R1030J
347.558	1.6	459930	WORD	n/a	wordpools/wordpool_EN.txt	BREAD	8	0	3	[0, 0, 0]	n/a	0	0	0	n/a	n/a	0.0	0	0	0	FR2	3	R1030J
350.146	1.6	462518	WORD	n/a	wordpools/wordpool_EN.txt	PLATE	9	0	3	[0, 0, 0]	n/a	0	0	0	n/a	n/a	0.0	0	0	0	FR2	3	R1030J
352.634	1.6	465006	WORD	n/a	wordpools/wordpool_EN.txt	PASTE	10	1	3	[0, 0, 0]	n/a	0	0	0	n/a	n/a	0.0	0	0	0	FR2	3	R1030J
355.187	1.6	467559	WORD	n/a	wordpools/wordpool_EN.txt	BRUSH	11	0	3	[0, 0, 0]	n/a	0	0	0	n/a	n/a	0.0	0	0	0	FR2	3	R1030J
357.725	1.6	470096	WORD	n/a	wordpools/wordpool_EN.txt	GRAPE	12	1	3	[0, 0, 0]	n/a	0	0	0	n/a	n/a	0.0	0	0	0	FR2	3	R1030J
359.344	0.001	471715	DISTRACT_START	n/a	n/a	n/a	-999	0	3	[0, 0, 0]	n/a	0	0	0	n/a	n/a	0.0	0	0	0	FR2	3	R1030J
359.345	0.017	471716	START	n/a	n/a	n/a	-999	0	3	[-999, -999, -999]	n/a	0	0	0	n/a	n/a	0.0	0	0	0	FR2	3	R1030J
359.362	4.69	471733	PROB	4.656	n/a	n/a	-999	0	3	[1, 6, 9]	16	0	0	0	n/a	n/a	0.0	0	0	0	FR2	3	R1030J
364.052	2.622	476423	PROB	2.599	n/a	n/a	-999	0	3	[2, 7, 3]	12	0	0	0	n/a	n/a	0.0	0	0	0	FR2	3	R1030J
366.674	2.653	479044	PROB	2.616	n/a	n/a	-999	0	3	[5, 8, 7]	20	0	0	0	n/a	n/a	0.0	0	0	0	FR2	3	R1030J
369.327	3.04	481697	PROB	3.011	n/a	n/a	-999	0	3	[2, 8, 3]	13	0	0	0	n/a	n/a	0.0	0	0	0	FR2	3	R1030J
372.367	2.82	484737	PROB	2.795	n/a	n/a	-999	0	3	[4, 3, 5]	12	0	0	0	n/a	n/a	0.0	0	0	0	FR2	3	R1030J
375.187	2.539	487557	PROB	2.512	n/a	n/a	-999	0	3	[5, 7, 7]	19	0	0	0	n/a	n/a	0.0	0	0	0	FR2	3	R1030J
377.726	2.244	490095	PROB	2.244	n/a	n/a	-999	0	3	[2, 6, 4]	12	0	0	0	n/a	n/a	0.0	0	0	0	FR2	3	R1030J
379.97	0.01	492339	STOP	n/a	n/a	n/a	-999	0	3	[-999, -999, -999]	n/a	0	0	0	n/a	n/a	0.0	0	0	0	FR2	3	R1030J
379.98	1.484	492349	DISTRACT_END	n/a	n/a	n/a	-999	0	3	[0, 0, 0]	n/a	0	0	0	n/a	n/a	0.0	0	0	0	FR2	3	R1030J
381.464	2.688	493833	REC_START	n/a	n/a	n/a	-999	0	3	[0, 0, 0]	n/a	0	0	0	n/a	n/a	0.0	0	0	0	FR2	3	R1030J
384.152	2.64	496521	REC_WORD	2.688	n/a	OWL	7	1	3	[0, 0, 0]	n/a	0	0	0	n/a	n/a	0.0	0	0	0	FR2	3	R1030J
386.792	7.184	499160	REC_WORD	5.328	n/a	WATCH	-999	0	3	[0, 0, 0]	n/a	0	0	0	n/a	n/a	0.0	0	0	0	FR2	3	R1030J
393.976	5.82	506344	REC_WORD	12.512	n/a	GRAPE	12	1	3	[0, 0, 0]	n/a	0	0	0	n/a	n/a	0.0	0	0	0	FR2	3	R1030J
399.796	2.434	512163	REC_WORD	18.332	n/a	PASTE	10	1	3	[0, 0, 0]	n/a	0	0	0	n/a	n/a	0.0	0	0	0	FR2	3	R1030J
402.23	8.912	514597	REC_WORD	20.766	n/a	TOY	3	1	3	[0, 0, 0]	n/a	0	0	0	n/a	n/a	0.0	0	0	0	FR2	3	R1030J
411.142	1.909	523508	REC_END	n/a	n/a	n/a	-999	0	3	[0, 0, 0]	n/a	0	0	0	n/a	n/a	0.0	0	0	0	FR2	3	R1030J
413.051	0.0	525417	TRIAL	n/a	n/a	n/a	-999	0	4	[0, 0, 0]	n/a	0	0	0	n/a	n/a	0.0	0	0	0	FR2	3	R1030J
413.051	10.0	525417	COUNTDOWN_START	n/a	n/a	n/a	-999	0	4	[0, 0, 0]	n/a	0	0	0	n/a	n/a	0.0	0	0	0	FR2	3	R1030J
423.479	0.007	535844	COUNTDOWN_END	n/a	n/a	n/a	-999	0	4	[0, 0, 0]	n/a	0	0	0	n/a	n/a	0.0	0	0	0	FR2	3	R1030J
423.486	1.6	535851	ORIENT	n/a	n/a	n/a	-999	0	4	[0, 0, 0]	n/a	0	0	0	n/a	n/a	0.0	0	0	0	FR2	3	R1030J
426.056	1.6	538420	WORD	n/a	wordpools/wordpool_EN.txt	FORT	1	0	4	[0, 0, 0]	n/a	0	0	0	n/a	n/a	0.0	0	0	0	FR2	3	R1030J
428.478	1.6	540842	WORD	n/a	wordpools/wordpool_EN.txt	SMOKE	2	0	4	[0, 0, 0]	n/a	0	0	0	n/a	n/a	0.0	0	0	0	FR2	3	R1030J
431.081	1.6	543445	WORD	n/a	wordpools/wordpool_EN.txt	NAIL	3	0	4	[0, 0, 0]	n/a	0	0	0	n/a	n/a	0.0	0	0	0	FR2	3	R1030J
433.536	1.6	545900	WORD	n/a	wordpools/wordpool_EN.txt	CORD	4	0	4	[0, 0, 0]	n/a	0	0	0	n/a	n/a	0.0	0	0	0	FR2	3	R1030J
436.04	1.6	548403	WORD	n/a	wordpools/wordpool_EN.txt	BEE	5	0	4	[0, 0, 0]	n/a	0	0	0	n/a	n/a	0.0	0	0	0	FR2	3	R1030J
438.495	1.6	550858	WORD	n/a	wordpools/wordpool_EN.txt	TEETH	6	0	4	[0, 0, 0]	n/a	0	0	0	n/a	n/a	0.0	0	0	0	FR2	3	R1030J
441.098	1.6	553461	WORD	n/a	wordpools/wordpool_EN.txt	CASH	7	0	4	[0, 0, 0]	n/a	0	0	0	n/a	n/a	0.0	0	0	0	FR2	3	R1030J
443.503	1.6	555866	WORD	n/a	wordpools/wordpool_EN.txt	POLE	8	1	4	[0, 0, 0]	n/a	0	0	0	n/a	n/a	0.0	0	0	0	FR2	3	R1030J
446.04	1.6	558402	WORD	n/a	wordpools/wordpool_EN.txt	BOOK	9	0	4	[0, 0, 0]	n/a	0	0	0	n/a	n/a	0.0	0	0	0	FR2	3	R1030J
448.595	1.6	560957	WORD	n/a	wordpools/wordpool_EN.txt	CAT	10	0	4	[0, 0, 0]	n/a	0	0	0	n/a	n/a	0.0	0	0	0	FR2	3	R1030J
450.983	1.6	563345	WORD	n/a	wordpools/wordpool_EN.txt	WORLD	11	1	4	[0, 0, 0]	n/a	0	0	0	n/a	n/a	0.0	0	0	0	FR2	3	R1030J
453.52	1.6	565882	WORD	n/a	wordpools/wordpool_EN.txt	BANK	12	0	4	[0, 0, 0]	n/a	0	0	0	n/a	n/a	0.0	0	0	0	FR2	3	R1030J
455.138	0.001	567499	DISTRACT_START	n/a	n/a	n/a	-999	0	4	[0, 0, 0]	n/a	0	0	0	n/a	n/a	0.0	0	0	0	FR2	3	R1030J
455.139	0.016	567500	START	n/a	n/a	n/a	-999	0	4	[-999, -999, -999]	n/a	0	0	0	n/a	n/a	0.0	0	0	0	FR2	3	R1030J
455.155	2.739	567516	PROB	2.704	n/a	n/a	-999	0	4	[8, 2, 8]	18	0	0	0	n/a	n/a	0.0	0	0	0	FR2	3	R1030J
457.894	2.436	570255	PROB	2.412	n/a	n/a	-999	0	4	[2, 9, 1]	12	0	0	0	n/a	n/a	0.0	0	0	0	FR2	3	R1030J
460.33	1.92	572691	PROB	1.888	n/a	n/a	-999	0	4	[1, 4, 5]	10	0	0	0	n/a	n/a	0.0	0	0	0	FR2	3	R1030J
462.25	2.07	574611	PROB	2.04	n/a	n/a	-999	0	4	[2, 6, 1]	9	0	0	0	n/a	n/a	0.0	0	0	0	FR2	3	R1030J
464.32	2.389	576681	PROB	2.363	n/a	n/a	-999	0	4	[4, 8, 3]	15	0	0	0	n/a	n/a	0.0	0	0	0	FR2	3	R1030J
466.709	2.37	579069	PROB	2.333	n/a	n/a	-999	0	4	[8, 4, 6]	18	0	0	0	n/a	n/a	0.0	0	0	0	FR2	3	R1030J
469.079	5.376	581439	PROB	5.348	n/a	n/a	-999	0	4	[9, 7, 6]	22	0	0	0	n/a	n/a	0.0	0	0	0	FR2	3	R1030J
474.455	4.571	586815	PROB	4.571	n/a	n/a	-999	0	4	[8, 9, 6]	23	0	0	0	n/a	n/a	0.0	0	0	0	FR2	3	R1030J
479.026	0.019	591385	STOP	n/a	n/a	n/a	-999	0	4	[-999, -999, -999]	n/a	0	0	0	n/a	n/a	0.0	0	0	0	FR2	3	R1030J
479.045	1.069	591404	DISTRACT_END	n/a	n/a	n/a	-999	0	4	[0, 0, 0]	n/a	0	0	0	n/a	n/a	0.0	0	0	0	FR2	3	R1030J
480.114	2.656	592473	REC_START	n/a	n/a	n/a	-999	0	4	[0, 0, 0]	n/a	0	0	0	n/a	n/a	0.0	0	0	0	FR2	3	R1030J
482.77	1.51	595129	REC_WORD_VV	2.656	n/a	<>	-999	0	4	[0, 0, 0]	n/a	0	0	0	n/a	n/a	0.0	0	0	0	FR2	3	R1030J
484.28	3.002	596639	REC_WORD	4.166	n/a	POLE	8	1	4	[0, 0, 0]	n/a	0	0	0	n/a	n/a	0.0	0	0	0	FR2	3	R1030J
487.282	0.993	599640	REC_WORD	7.168	n/a	INK	-999	0	4	[0, 0, 0]	n/a	0	0	0	n/a	n/a	0.0	0	0	0	FR2	3	R1030J
488.275	4.681	600633	REC_WORD	8.161	n/a	PEN	-999	0	4	[0, 0, 0]	n/a	0	0	0	n/a	n/a	0.0	0	0	0	FR2	3	R1030J
492.956	9.796	605314	REC_WORD	12.842	n/a	WORLD	11	1	4	[0, 0, 0]	n/a	0	0	0	n/a	n/a	0.0	0	0	0	FR2	3	R1030J
502.752	7.383	615109	REC_WORD	22.638	n/a	WAND	-999	0	4	[0, 0, 0]	n/a	0	0	0	n/a	n/a	0.0	0	0	0	FR2	3	R1030J
510.135	1.8	622491	REC_END	n/a	n/a	n/a	-999	0	4	[0, 0, 0]	n/a	0	0	0	n/a	n/a	0.0	0	0	0	FR2	3	R1030J
511.935	0.0	624291	TRIAL	n/a	n/a	n/a	-999	0	5	[0, 0, 0]	n/a	0	1	0	n/a	n/a	0.0	0	0	0	FR2	3	R1030J
511.935	10.0	624291	COUNTDOWN_START	n/a	n/a	n/a	-999	0	5	[0, 0, 0]	n/a	0	1	0	n/a	n/a	0.0	0	0	0	FR2	3	R1030J
522.363	0.006	634718	COUNTDOWN_END	n/a	n/a	n/a	-999	0	5	[0, 0, 0]	n/a	0	1	0	n/a	n/a	0.0	0	0	0	FR2	3	R1030J
522.369	1.6	634724	ORIENT	n/a	n/a	n/a	-999	0	5	[0, 0, 0]	n/a	0	1	0	n/a	n/a	0.0	0	0	0	FR2	3	R1030J
524.674	4.6	637028	STIM_ON	n/a	n/a	n/a	-999	0	5	[0, 0, 0]	n/a	1	1	4600	LQ2	LQ3	500.0	50	230	300	FR2	3	R1030J
524.89	1.6	637244	WORD	n/a	wordpools/wordpool_EN.txt	TOAD	1	1	5	[0, 0, 0]	n/a	1	1	4600	LQ2	LQ3	500.0	50	230	300	FR2	3	R1030J
527.511	1.6	639865	WORD	n/a	wordpools/wordpool_EN.txt	TANK	2	0	5	[0, 0, 0]	n/a	1	1	4600	LQ2	LQ3	500.0	50	230	300	FR2	3	R1030J
530.014	1.6	642368	WORD	n/a	wordpools/wordpool_EN.txt	WHEEL	3	0	5	[0, 0, 0]	n/a	0	1	0	n/a	n/a	0.0	0	0	0	FR2	3	R1030J
532.486	1.6	644840	WORD	n/a	wordpools/wordpool_EN.txt	POND	4	0	5	[0, 0, 0]	n/a	0	1	0	n/a	n/a	0.0	0	0	0	FR2	3	R1030J
534.828	4.6	647181	STIM_ON	n/a	n/a	n/a	-999	0	5	[0, 0, 0]	n/a	1	1	4600	LQ2	LQ3	500.0	50	230	300	FR2	3	R1030J
535.039	1.6	647392	WORD	n/a	wordpools/wordpool_EN.txt	WORM	5	0	5	[0, 0, 0]	n/a	1	1	4600	LQ2	LQ3	500.0	50	230	300	FR2	3	R1030J
537.528	1.6	649881	WORD	n/a	wordpools/wordpool_EN.txt	STORE	6	0	5	[0, 0, 0]	n/a	1	1	4600	LQ2	LQ3	500.0	50	230	300	FR2	3	R1030J
539.932	1.6	652285	WORD	n/a	wordpools/wordpool_EN.txt	SPARK	7	0	5	[0, 0, 0]	n/a	0	1	0	n/a	n/a	0.0	0	0	0	FR2	3	R1030J
542.47	1.6	654823	WORD	n/a	wordpools/wordpool_EN.txt	SNAIL	8	0	5	[0, 0, 0]	n/a	0	1	0	n/a	n/a	0.0	0	0	0	FR2	3	R1030J
544.859	4.6	657211	STIM_ON	n/a	n/a	n/a	-999	0	5	[0, 0, 0]	n/a	1	1	4600	LQ2	LQ3	500.0	50	230	300	FR2	3	R1030J
545.073	1.6	657425	WORD	n/a	wordpools/wordpool_EN.txt	STRING	9	1	5	[0, 0, 0]	n/a	1	1	4600	LQ2	LQ3	500.0	50	230	300	FR2	3	R1030J
547.511	1.6	659863	WORD	n/a	wordpools/wordpool_EN.txt	CONE	10	1	5	[0, 0, 0]	n/a	1	1	4600	LQ2	LQ3	500.0	50	230	300	FR2	3	R1030J
550.065	1.6	662417	WORD	n/a	wordpools/wordpool_EN.txt	PEA	11	1	5	[0, 0, 0]	n/a	0	1	0	n/a	n/a	0.0	0	0	0	FR2	3	R1030J
552.587	1.6	664939	WORD	n/a	wordpools/wordpool_EN.txt	STEAM	12	0	5	[0, 0, 0]	n/a	0	1	0	n/a	n/a	0.0	0	0	0	FR2	3	R1030J
554.205	0.001	666556	DISTRACT_START	n/a	n/a	n/a	-999	0	5	[0, 0, 0]	n/a	0	1	0	n/a	n/a	0.0	0	0	0	FR2	3	R1030J
554.206	0.016	666557	START	n/a	n/a	n/a	-999	0	5	[-999, -999, -999]	n/a	0	1	0	n/a	n/a	0.0	0	0	0	FR2	3	R1030J
554.222	3.323	666573	PROB	3.285	n/a	n/a	-999	0	5	[1, 6, 8]	15	0	1	0	n/a	n/a	0.0	0	0	0	FR2	3	R1030J
557.545	3.222	669896	PROB	3.202	n/a	n/a	-999	0	5	[8, 6, 5]	19	0	1	0	n/a	n/a	0.0	0	0	0	FR2	3	R1030J
560.767	2.37	673118	PROB	2.347	n/a	n/a	-999	0	5	[2, 2, 8]	12	0	1	0	n/a	n/a	0.0	0	0	0	FR2	3	R1030J
563.137	2.772	675488	PROB	2.746	n/a	n/a	-999	0	5	[6, 7, 4]	17	0	1	0	n/a	n/a	0.0	0	0	0	FR2	3	R1030J
565.909	3.723	678259	PROB	3.686	n/a	n/a	-999	0	5	[5, 6, 7]	18	0	1	0	n/a	n/a	0.0	0	0	0	FR2	3	R1030J
569.632	2.087	681982	PROB	2.059	n/a	n/a	-999	0	5	[1, 7, 7]	15	0	1	0	n/a	n/a	0.0	0	0	0	FR2	3	R1030J
571.719	3.196	684069	PROB	3.196	n/a	n/a	-999	0	5	[9, 7, 8]	24	0	1	0	n/a	n/a	0.0	0	0	0	FR2	3	R1030J
574.915	0.01	687264	STOP	n/a	n/a	n/a	-999	0	5	[-999, -999, -999]	n/a	0	1	0	n/a	n/a	0.0	0	0	0	FR2	3	R1030J
574.925	1.167	687274	DISTRACT_END	n/a	n/a	n/a	-999	0	5	[0, 0, 0]	n/a	0	1	0	n/a	n/a	0.0	0	0	0	FR2	3	R1030J
576.092	5.093	688441	REC_START	n/a	n/a	n/a	-999	0	5	[0, 0, 0]	n/a	0	1	0	n/a	n/a	0.0	0	0	0	FR2	3	R1030J
581.185	2.137	693534	REC_WORD	5.093	n/a	BEE	-999	0	5	[0, 0, 0]	n/a	0	1	0	n/a	n/a	0.0	0	0	0	FR2	3	R1030J
583.322	1.602	695671	REC_WORD	7.23	n/a	STRING	9	1	5	[0, 0, 0]	n/a	0	1	0	n/a	n/a	0.0	0	0	0	FR2	3	R1030J
584.924	11.742	697272	REC_WORD	8.832	n/a	TOAD	1	1	5	[0, 0, 0]	n/a	0	1	0	n/a	n/a	0.0	0	0	0	FR2	3	R1030J
596.666	1.973	709013	REC_WORD	20.574	n/a	CONE	10	1	5	[0, 0, 0]	n/a	0	1	0	n/a	n/a	0.0	0	0	0	FR2	3	R1030J
598.639	5.117	710986	REC_WORD	22.547	n/a	PEA	11	1	5	[0, 0, 0]	n/a	0	1	0	n/a	n/a	0.0	0	0	0	FR2	3	R1030J
603.756	2.357	716102	REC_WORD	27.664	n/a	STOOL	-999	0	5	[0, 0, 0]	n/a	0	1	0	n/a	n/a	0.0	0	0	0	FR2	3	R1030J
606.113	2.166	718459	REC_END	n/a	n/a	n/a	-999	0	5	[0, 0, 0]	n/a	0	1	0	n/a	n/a	0.0	0	0	0	FR2	3	R1030J
608.279	10.0	720625	COUNTDOWN_START	n/a	n/a	n/a	-999	0	6	[0, 0, 0]	n/a	0	1	0	n/a	n/a	0.0	0	0	0	FR2	3	R1030J
608.28	10.427	720626	TRIAL	n/a	n/a	n/a	-999	0	6	[0, 0, 0]	n/a	0	1	0	n/a	n/a	0.0	0	0	0	FR2	3	R1030J
618.707	0.008	731052	COUNTDOWN_END	n/a	n/a	n/a	-999	0	6	[0, 0, 0]	n/a	0	1	0	n/a	n/a	0.0	0	0	0	FR2	3	R1030J
618.715	1.6	731060	ORIENT	n/a	n/a	n/a	-999	0	6	[0, 0, 0]	n/a	0	1	0	n/a	n/a	0.0	0	0	0	FR2	3	R1030J
621.218	1.6	733563	WORD	n/a	wordpools/wordpool_EN.txt	ROPE	1	0	6	[0, 0, 0]	n/a	0	1	0	n/a	n/a	0.0	0	0	0	FR2	3	R1030J
623.673	1.6	736017	WORD	n/a	wordpools/wordpool_EN.txt	LOCK	2	0	6	[0, 0, 0]	n/a	0	1	0	n/a	n/a	0.0	0	0	0	FR2	3	R1030J
625.918	4.6	738262	STIM_ON	n/a	n/a	n/a	-999	0	6	[0, 0, 0]	n/a	1	1	4600	LQ2	LQ3	500.0	50	230	300	FR2	3	R1030J
626.126	1.6	738470	WORD	n/a	wordpools/wordpool_EN.txt	KITE	3	0	6	[0, 0, 0]	n/a	1	1	4600	LQ2	LQ3	500.0	50	230	300	FR2	3	R1030J
628.715	1.6	741059	WORD	n/a	wordpools/wordpool_EN.txt	BARN	4	1	6	[0, 0, 0]	n/a	1	1	4600	LQ2	LQ3	500.0	50	230	300	FR2	3	R1030J
631.335	1.6	743679	WORD	n/a	wordpools/wordpool_EN.txt	CLOTH	5	1	6	[0, 0, 0]	n/a	0	1	0	n/a	n/a	0.0	0	0	0	FR2	3	R1030J
633.724	1.6	746067	WORD	n/a	wordpools/wordpool_EN.txt	DOCK	6	0	6	[0, 0, 0]	n/a	0	1	0	n/a	n/a	0.0	0	0	0	FR2	3	R1030J
636.136	4.6	748479	STIM_ON	n/a	n/a	n/a	-999	0	6	[0, 0, 0]	n/a	1	1	4600	LQ2	LQ3	500.0	50	230	300	FR2	3	R1030J
636.344	1.6	748687	WORD	n/a	wordpools/wordpool_EN.txt	SOAP	7	1	6	[0, 0, 0]	n/a	1	1	4600	LQ2	LQ3	500.0	50	230	300	FR2	3	R1030J
638.732	1.6	751075	WORD	n/a	wordpools/wordpool_EN.txt	SLEEVE	8	0	6	[0, 0, 0]	n/a	1	1	4600	LQ2	LQ3	500.0	50	230	300	FR2	3	R1030J
641.302	1.6	753645	WORD	n/a	wordpools/wordpool_EN.txt	LEG	9	0	6	[0, 0, 0]	n/a	0	1	0	n/a	n/a	0.0	0	0	0	FR2	3	R1030J
643.79	1.6	756132	WORD	n/a	wordpools/wordpool_EN.txt	FORK	10	0	6	[0, 0, 0]	n/a	0	1	0	n/a	n/a	0.0	0	0	0	FR2	3	R1030J
646.175	4.6	758517	STIM_ON	n/a	n/a	n/a	-999	0	6	[0, 0, 0]	n/a	1	1	4600	LQ2	LQ3	500.0	50	230	300	FR2	3	R1030J
646.395	1.6	758737	WORD	n/a	wordpools/wordpool_EN.txt	SHEEP	11	1	6	[0, 0, 0]	n/a	1	1	4600	LQ2	LQ3	500.0	50	230	300	FR2	3	R1030J
648.799	1.6	761141	WORD	n/a	wordpools/wordpool_EN.txt	STICK	12	0	6	[0, 0, 0]	n/a	1	1	4600	LQ2	LQ3	500.0	50	230	300	FR2	3	R1030J
650.418	0.001	762760	DISTRACT_START	n/a	n/a	n/a	-999	0	6	[0, 0, 0]	n/a	1	1	4600	LQ2	LQ3	500.0	50	230	300	FR2	3	R1030J
650.419	0.016	762761	START	n/a	n/a	n/a	-999	0	6	[-999, -999, -999]	n/a	0	1	0	n/a	n/a	0.0	0	0	0	FR2	3	R1030J
650.435	3.238	762777	PROB	3.208	n/a	n/a	-999	0	6	[4, 4, 3]	11	0	1	0	n/a	n/a	0.0	0	0	0	FR2	3	R1030J
653.673	1.77	766014	PROB	1.746	n/a	n/a	-999	0	6	[2, 1, 2]	5	0	1	0	n/a	n/a	0.0	0	0	0	FR2	3	R1030J
655.443	2.404	767784	PROB	2.376	n/a	n/a	-999	0	6	[5, 3, 4]	12	0	1	0	n/a	n/a	0.0	0	0	0	FR2	3	R1030J
657.847	2.136	770188	PROB	2.107	n/a	n/a	-999	0	6	[1, 2, 7]	10	0	1	0	n/a	n/a	0.0	0	0	0	FR2	3	R1030J
659.983	2.739	772324	PROB	2.708	n/a	n/a	-999	0	6	[3, 9, 3]	15	0	1	0	n/a	n/a	0.0	0	0	0	FR2	3	R1030J
662.722	2.47	775063	PROB	2.44	n/a	n/a	-999	0	6	[7, 1, 5]	13	0	1	0	n/a	n/a	0.0	0	0	0	FR2	3	R1030J
665.192	3.105	777532	PROB	3.082	n/a	n/a	-999	0	6	[5, 1, 8]	14	0	1	0	n/a	n/a	0.0	0	0	0	FR2	3	R1030J
668.297	2.602	780637	PROB	2.602	n/a	n/a	-999	0	6	[7, 7, 2]	16	0	1	0	n/a	n/a	0.0	0	0	0	FR2	3	R1030J
670.899	0.02	783239	STOP	n/a	n/a	n/a	-999	0	6	[-999, -999, -999]	n/a	0	1	0	n/a	n/a	0.0	0	0	0	FR2	3	R1030J
670.919	1.102	783259	DISTRACT_END	n/a	n/a	n/a	-999	0	6	[0, 0, 0]	n/a	0	1	0	n/a	n/a	0.0	0	0	0	FR2	3	R1030J
672.021	2.108	784361	REC_START	n/a	n/a	n/a	-999	0	6	[0, 0, 0]	n/a	0	1	0	n/a	n/a	0.0	0	0	0	FR2	3	R1030J
674.129	2.348	786468	REC_WORD_VV	2.108	n/a	<>	-999	0	6	[0, 0, 0]	n/a	0	1	0	n/a	n/a	0.0	0	0	0	FR2	3	R1030J
676.477	0.926	788816	REC_WORD	4.456	n/a	CLOTH	5	1	6	[0, 0, 0]	n/a	0	1	0	n/a	n/a	0.0	0	0	0	FR2	3	R1030J
677.403	2.743	789742	REC_WORD	5.382	n/a	SOAP	7	1	6	[0, 0, 0]	n/a	0	1	0	n/a	n/a	0.0	0	0	0	FR2	3	R1030J
680.146	1.554	792485	REC_WORD	8.125	n/a	SHEEP	11	1	6	[0, 0, 0]	n/a	0	1	0	n/a	n/a	0.0	0	0	0	FR2	3	R1030J
681.7	10.194	794039	REC_WORD	9.679	n/a	BARN	4	1	6	[0, 0, 0]	n/a	0	1	0	n/a	n/a	0.0	0	0	0	FR2	3	R1030J
691.894	3.745	804232	REC_WORD	19.873	n/a	GOLD	-999	0	6	[0, 0, 0]	n/a	0	1	0	n/a	n/a	0.0	0	0	0	FR2	3	R1030J
695.639	6.394	807976	REC_WORD	23.618	n/a	CLOTH	5	1	6	[0, 0, 0]	n/a	0	1	0	n/a	n/a	0.0	0	0	0	FR2	3	R1030J
702.033	1.741	814370	REC_END	n/a	n/a	n/a	-999	0	6	[0, 0, 0]	n/a	0	1	0	n/a	n/a	0.0	0	0	0	FR2	3	R1030J
703.774	10.0	816110	COUNTDOWN_START	n/a	n/a	n/a	-999	0	7	[0, 0, 0]	n/a	0	1	0	n/a	n/a	0.0	0	0	0	FR2	3	R1030J
703.775	10.427	816111	TRIAL	n/a	n/a	n/a	-999	0	7	[0, 0, 0]	n/a	0	1	0	n/a	n/a	0.0	0	0	0	FR2	3	R1030J
714.202	0.006	826537	COUNTDOWN_END	n/a	n/a	n/a	-999	0	7	[0, 0, 0]	n/a	0	1	0	n/a	n/a	0.0	0	0	0	FR2	3	R1030J
714.208	1.6	826543	ORIENT	n/a	n/a	n/a	-999	0	7	[0, 0, 0]	n/a	0	1	0	n/a	n/a	0.0	0	0	0	FR2	3	R1030J
716.39	4.6	828725	STIM_ON	n/a	n/a	n/a	-999	0	7	[0, 0, 0]	n/a	1	1	4600	LQ2	LQ3	500.0	50	230	300	FR2	3	R1030J
716.596	1.6	828931	WORD	n/a	wordpools/wordpool_EN.txt	SWORD	1	1	7	[0, 0, 0]	n/a	1	1	4600	LQ2	LQ3	500.0	50	230	300	FR2	3	R1030J
719.149	1.6	831484	WORD	n/a	wordpools/wordpool_EN.txt	SEA	2	0	7	[0, 0, 0]	n/a	1	1	4600	LQ2	LQ3	500.0	50	230	300	FR2	3	R1030J
721.554	1.6	833889	WORD	n/a	wordpools/wordpool_EN.txt	BEACH	3	0	7	[0, 0, 0]	n/a	0	1	0	n/a	n/a	0.0	0	0	0	FR2	3	R1030J
724.108	1.6	836442	WORD	n/a	wordpools/wordpool_EN.txt	CANE	4	1	7	[0, 0, 0]	n/a	0	1	0	n/a	n/a	0.0	0	0	0	FR2	3	R1030J
726.507	4.6	838841	STIM_ON	n/a	n/a	n/a	-999	0	7	[0, 0, 0]	n/a	1	1	4600	LQ2	LQ3	500.0	50	230	300	FR2	3	R1030J
726.713	1.6	839047	WORD	n/a	wordpools/wordpool_EN.txt	SPEAR	5	0	7	[0, 0, 0]	n/a	1	1	4600	LQ2	LQ3	500.0	50	230	300	FR2	3	R1030J
729.116	1.6	841450	WORD	n/a	wordpools/wordpool_EN.txt	PANTS	6	0	7	[0, 0, 0]	n/a	1	1	4600	LQ2	LQ3	500.0	50	230	300	FR2	3	R1030J
731.638	1.6	843972	WORD	n/a	wordpools/wordpool_EN.txt	RIB	7	0	7	[0, 0, 0]	n/a	0	1	0	n/a	n/a	0.0	0	0	0	FR2	3	R1030J
734.124	1.6	846457	WORD	n/a	wordpools/wordpool_EN.txt	MOUTH	8	1	7	[0, 0, 0]	n/a	0	1	0	n/a	n/a	0.0	0	0	0	FR2	3	R1030J
736.339	4.6	848672	STIM_ON	n/a	n/a	n/a	-999	0	7	[0, 0, 0]	n/a	1	1	4600	LQ2	LQ3	500.0	50	230	300	FR2	3	R1030J
736.547	1.6	848880	WORD	n/a	wordpools/wordpool_EN.txt	SIGN	9	1	7	[0, 0, 0]	n/a	1	1	4600	LQ2	LQ3	500.0	50	230	300	FR2	3	R1030J
739.15	1.6	851483	WORD	n/a	wordpools/wordpool_EN.txt	CLIFF	10	0	7	[0, 0, 0]	n/a	1	1	4600	LQ2	LQ3	500.0	50	230	300	FR2	3	R1030J
741.688	1.6	854021	WORD	n/a	wordpools/wordpool_EN.txt	SWAMP	11	1	7	[0, 0, 0]	n/a	0	1	0	n/a	n/a	0.0	0	0	0	FR2	3	R1030J
744.125	1.6	856457	WORD	n/a	wordpools/wordpool_EN.txt	HAT	12	0	7	[0, 0, 0]	n/a	0	1	0	n/a	n/a	0.0	0	0	0	FR2	3	R1030J
745.745	0.001	858077	DISTRACT_START	n/a	n/a	n/a	-999	0	7	[0, 0, 0]	n/a	0	1	0	n/a	n/a	0.0	0	0	0	FR2	3	R1030J
745.746	0.016	858078	START	n/a	n/a	n/a	-999	0	7	[-999, -999, -999]	n/a	0	1	0	n/a	n/a	0.0	0	0	0	FR2	3	R1030J
745.762	3.823	858094	PROB	3.793	n/a	n/a	-999	0	7	[2, 9, 4]	15	0	1	0	n/a	n/a	0.0	0	0	0	FR2	3	R1030J
749.585	2.703	861917	PROB	2.673	n/a	n/a	-999	0	7	[4, 7, 1]	12	0	1	0	n/a	n/a	0.0	0	0	0	FR2	3	R1030J
752.288	1.937	864619	PROB	1.898	n/a	n/a	-999	0	7	[6, 1, 6]	13	0	1	0	n/a	n/a	0.0	0	0	0	FR2	3	R1030J
754.225	2.188	866556	PROB	2.154	n/a	n/a	-999	0	7	[8, 6, 1]	15	0	1	0	n/a	n/a	0.0	0	0	0	FR2	3	R1030J
756.413	2.354	868744	PROB	2.326	n/a	n/a	-999	0	7	[2, 3, 7]	12	0	1	0	n/a	n/a	0.0	0	0	0	FR2	3	R1030J
758.767	2.638	871098	PROB	2.612	n/a	n/a	-999	0	7	[8, 8, 6]	22	0	1	0	n/a	n/a	0.0	0	0	0	FR2	3	R1030J
761.405	2.737	873736	PROB	2.701	n/a	n/a	-999	0	7	[9, 2, 1]	12	0	1	0	n/a	n/a	0.0	0	0	0	FR2	3	R1030J
764.142	3.132	876472	PROB	3.132	n/a	n/a	-999	0	7	[8, 2, 6]	16	0	1	0	n/a	n/a	0.0	0	0	0	FR2	3	R1030J
767.274	0.006	879604	STOP	n/a	n/a	n/a	-999	0	7	[-999, -999, -999]	n/a	0	1	0	n/a	n/a	0.0	0	0	0	FR2	3	R1030J
767.28	1.053	879610	DISTRACT_END	n/a	n/a	n/a	-999	0	7	[0, 0, 0]	n/a	0	1	0	n/a	n/a	0.0	0	0	0	FR2	3	R1030J
768.333	2.691	880663	REC_START	n/a	n/a	n/a	-999	0	7	[0, 0, 0]	n/a	0	1	0	n/a	n/a	0.0	0	0	0	FR2	3	R1030J
771.024	7.902	883354	REC_WORD	2.691	n/a	SWAMP	11	1	7	[0, 0, 0]	n/a	0	1	0	n/a	n/a	0.0	0	0	0	FR2	3	R1030J
778.926	7.026	891255	REC_WORD	10.593	n/a	HOLE	-999	0	7	[0, 0, 0]	n/a	0	1	0	n/a	n/a	0.0	0	0	0	FR2	3	R1030J
785.952	3.364	898280	REC_WORD	17.619	n/a	KITE	-999	0	7	[0, 0, 0]	n/a	0	1	0	n/a	n/a	0.0	0	0	0	FR2	3	R1030J
789.316	1.353	901644	REC_WORD	20.983	n/a	SWORD	1	1	7	[0, 0, 0]	n/a	0	1	0	n/a	n/a	0.0	0	0	0	FR2	3	R1030J
790.669	2.982	902997	REC_WORD	22.336	n/a	CANE	4	1	7	[0, 0, 0]	n/a	0	1	0	n/a	n/a	0.0	0	0	0	FR2	3	R1030J
793.651	1.367	905978	REC_WORD	25.318	n/a	MOUTH	8	1	7	[0, 0, 0]	n/a	0	1	0	n/a	n/a	0.0	0	0	0	FR2	3	R1030J
795.018	3.329	907345	REC_WORD	26.685	n/a	SIGN	9	1	7	[0, 0, 0]	n/a	0	1	0	n/a	n/a	0.0	0	0	0	FR2	3	R1030J
798.347	2.357	910674	REC_END	n/a	n/a	n/a	-999	0	7	[0, 0, 0]	n/a	0	1	0	n/a	n/a	0.0	0	0	0	FR2	3	R1030J
800.704	0.0	913031	TRIAL	n/a	n/a	n/a	-999	0	8	[0, 0, 0]	n/a	0	1	0	n/a	n/a	0.0	0	0	0	FR2	3	R1030J
800.704	10.0	913031	COUNTDOWN_START	n/a	n/a	n/a	-999	0	8	[0, 0, 0]	n/a	0	1	0	n/a	n/a	0.0	0	0	0	FR2	3	R1030J
811.132	0.022	923458	COUNTDOWN_END	n/a	n/a	n/a	-999	0	8	[0, 0, 0]	n/a	0	1	0	n/a	n/a	0.0	0	0	0	FR2	3	R1030J
811.154	1.6	923480	ORIENT	n/a	n/a	n/a	-999	0	8	[0, 0, 0]	n/a	0	1	0	n/a	n/a	0.0	0	0	0	FR2	3	R1030J
813.709	1.6	926034	WORD	n/a	wordpools/wordpool_EN.txt	SINK	1	0	8	[0, 0, 0]	n/a	0	1	0	n/a	n/a	0.0	0	0	0	FR2	3	R1030J
816.229	1.6	928554	WORD	n/a	wordpools/wordpool_EN.txt	PIE	2	0	8	[0, 0, 0]	n/a	0	1	0	n/a	n/a	0.0	0	0	0	FR2	3	R1030J
818.576	4.6	930901	STIM_ON	n/a	n/a	n/a	-999	0	8	[0, 0, 0]	n/a	1	1	4600	LQ2	LQ3	500.0	50	230	300	FR2	3	R1030J
818.785	1.6	931110	WORD	n/a	wordpools/wordpool_EN.txt	BOARD	3	0	8	[0, 0, 0]	n/a	1	1	4600	LQ2	LQ3	500.0	50	230	300	FR2	3	R1030J
821.372	1.6	933697	WORD	n/a	wordpools/wordpool_EN.txt	SOCK	4	0	8	[0, 0, 0]	n/a	1	1	4600	LQ2	LQ3	500.0	50	230	300	FR2	3	R1030J
823.86	1.6	936184	WORD	n/a	wordpools/wordpool_EN.txt	SPOON	5	0	8	[0, 0, 0]	n/a	0	1	0	n/a	n/a	0.0	0	0	0	FR2	3	R1030J
826.346	1.6	938670	WORD	n/a	wordpools/wordpool_EN.txt	STOVE	6	0	8	[0, 0, 0]	n/a	0	1	0	n/a	n/a	0.0	0	0	0	FR2	3	R1030J
828.58	4.6	940904	STIM_ON	n/a	n/a	n/a	-999	0	8	[0, 0, 0]	n/a	1	1	4600	LQ2	LQ3	500.0	50	230	300	FR2	3	R1030J
828.785	1.6	941109	WORD	n/a	wordpools/wordpool_EN.txt	SLUSH	7	1	8	[0, 0, 0]	n/a	1	1	4600	LQ2	LQ3	500.0	50	230	300	FR2	3	R1030J
831.39	1.6	943713	WORD	n/a	wordpools/wordpool_EN.txt	WOOD	8	0	8	[0, 0, 0]	n/a	1	1	4600	LQ2	LQ3	500.0	50	230	300	FR2	3	R1030J
833.959	1.6	946282	WORD	n/a	wordpools/wordpool_EN.txt	THUMB	9	0	8	[0, 0, 0]	n/a	0	1	0	n/a	n/a	0.0	0	0	0	FR2	3	R1030J
836.364	1.6	948687	WORD	n/a	wordpools/wordpool_EN.txt	SUIT	10	0	8	[0, 0, 0]	n/a	0	1	0	n/a	n/a	0.0	0	0	0	FR2	3	R1030J
838.725	4.6	951048	STIM_ON	n/a	n/a	n/a	-999	0	8	[0, 0, 0]	n/a	1	1	4600	LQ2	LQ3	500.0	50	230	300	FR2	3	R1030J
838.935	1.6	951258	WORD	n/a	wordpools/wordpool_EN.txt	SHIP	11	0	8	[0, 0, 0]	n/a	1	1	4600	LQ2	LQ3	500.0	50	230	300	FR2	3	R1030J
841.389	1.6	953711	WORD	n/a	wordpools/wordpool_EN.txt	SHRIMP	12	0	8	[0, 0, 0]	n/a	1	1	4600	LQ2	LQ3	500.0	50	230	300	FR2	3	R1030J
843.008	0.0	955330	DISTRACT_START	n/a	n/a	n/a	-999	0	8	[0, 0, 0]	n/a	1	1	4600	LQ2	LQ3	500.0	50	230	300	FR2	3	R1030J
843.008	0.016	955330	START	n/a	n/a	n/a	-999	0	8	[-999, -999, -999]	n/a	0	1	0	n/a	n/a	0.0	0	0	0	FR2	3	R1030J
843.024	2.989	955346	PROB	2.954	n/a	n/a	-999	0	8	[4, 3, 7]	14	0	1	0	n/a	n/a	0.0	0	0	0	FR2	3	R1030J
846.013	1.603	958335	PROB	1.582	n/a	n/a	-999	0	8	[7, 1, 1]	9	0	1	0	n/a	n/a	0.0	0	0	0	FR2	3	R1030J
847.616	2.637	959938	PROB	2.602	n/a	n/a	-999	0	8	[2, 8, 6]	16	0	1	0	n/a	n/a	0.0	0	0	0	FR2	3	R1030J
850.253	2.555	962575	PROB	2.526	n/a	n/a	-999	0	8	[8, 5, 2]	15	0	1	0	n/a	n/a	0.0	0	0	0	FR2	3	R1030J
852.808	2.32	965129	PROB	2.282	n/a	n/a	-999	0	8	[2, 1, 7]	10	0	1	0	n/a	n/a	0.0	0	0	0	FR2	3	R1030J
855.128	4.925	967449	PROB	4.89	n/a	n/a	-999	0	8	[5, 2, 4]	11	0	1	0	n/a	n/a	0.0	0	0	0	FR2	3	R1030J
860.053	2.154	972374	PROB	2.133	n/a	n/a	-999	0	8	[9, 3, 1]	13	0	1	0	n/a	n/a	0.0	0	0	0	FR2	3	R1030J
862.207	3.139	974527	PROB	3.139	n/a	n/a	-999	0	8	[9, 4, 3]	16	0	1	0	n/a	n/a	0.0	0	0	0	FR2	3	R1030J
865.346	0.017	977666	STOP	n/a	n/a	n/a	-999	0	8	[-999, -999, -999]	n/a	0	1	0	n/a	n/a	0.0	0	0	0	FR2	3	R1030J
865.363	1.052	977683	DISTRACT_END	n/a	n/a	n/a	-999	0	8	[0, 0, 0]	n/a	0	1	0	n/a	n/a	0.0	0	0	0	FR2	3	R1030J
866.415	8.011	978735	REC_START	n/a	n/a	n/a	-999	0	8	[0, 0, 0]	n/a	0	1	0	n/a	n/a	0.0	0	0	0	FR2	3	R1030J
874.426	4.032	986745	REC_WORD	8.011	n/a	SLUSH	7	1	8	[0, 0, 0]	n/a	0	1	0	n/a	n/a	0.0	0	0	0	FR2	3	R1030J
878.458	3.67	990777	REC_WORD	12.043	n/a	ROPE	-999	0	8	[0, 0, 0]	n/a	0	1	0	n/a	n/a	0.0	0	0	0	FR2	3	R1030J
882.128	14.307	994446	REC_WORD	15.713	n/a	CHEST	-999	0	8	[0, 0, 0]	n/a	0	1	0	n/a	n/a	0.0	0	0	0	FR2	3	R1030J
896.435	2.018	1008752	REC_END	n/a	n/a	n/a	-999	0	8	[0, 0, 0]	n/a	0	1	0	n/a	n/a	0.0	0	0	0	FR2	3	R1030J
898.453	10.0	1010770	COUNTDOWN_START	n/a	n/a	n/a	-999	0	9	[0, 0, 0]	n/a	0	0	0	n/a	n/a	0.0	0	0	0	FR2	3	R1030J
898.453	10.428	1010770	TRIAL	n/a	n/a	n/a	-999	0	9	[0, 0, 0]	n/a	0	0	0	n/a	n/a	0.0	0	0	0	FR2	3	R1030J
908.881	0.005	1021197	COUNTDOWN_END	n/a	n/a	n/a	-999	0	9	[0, 0, 0]	n/a	0	0	0	n/a	n/a	0.0	0	0	0	FR2	3	R1030J
908.886	1.6	1021202	ORIENT	n/a	n/a	n/a	-999	0	9	[0, 0, 0]	n/a	0	0	0	n/a	n/a	0.0	0	0	0	FR2	3	R1030J
911.374	1.6	1023689	WORD	n/a	wordpools/wordpool_EN.txt	TOAST	1	0	9	[0, 0, 0]	n/a	0	0	0	n/a	n/a	0.0	0	0	0	FR2	3	R1030J
913.911	1.6	1026226	WORD	n/a	wordpools/wordpool_EN.txt	TRASH	2	0	9	[0, 0, 0]	n/a	0	0	0	n/a	n/a	0.0	0	0	0	FR2	3	R1030J
916.298	1.6	1028613	WORD	n/a	wordpools/wordpool_EN.txt	ELF	3	0	9	[0, 0, 0]	n/a	0	0	0	n/a	n/a	0.0	0	0	0	FR2	3	R1030J
918.786	1.6	1031101	WORD	n/a	wordpools/wordpool_EN.txt	TENT	4	0	9	[0, 0, 0]	n/a	0	0	0	n/a	n/a	0.0	0	0	0	FR2	3	R1030J
921.256	1.6	1033570	WORD	n/a	wordpools/wordpool_EN.txt	CUP	5	0	9	[0, 0, 0]	n/a	0	0	0	n/a	n/a	0.0	0	0	0	FR2	3	R1030J
923.828	1.6	1036142	WORD	n/a	wordpools/wordpool_EN.txt	FOOT	6	0	9	[0, 0, 0]	n/a	0	0	0	n/a	n/a	0.0	0	0	0	FR2	3	R1030J
926.399	1.6	1038713	WORD	n/a	wordpools/wordpool_EN.txt	CORN	7	0	9	[0, 0, 0]	n/a	0	0	0	n/a	n/a	0.0	0	0	0	FR2	3	R1030J
928.921	1.6	1041235	WORD	n/a	wordpools/wordpool_EN.txt	SPRING	8	0	9	[0, 0, 0]	n/a	0	0	0	n/a	n/a	0.0	0	0	0	FR2	3	R1030J
931.457	1.6	1043770	WORD	n/a	wordpools/wordpool_EN.txt	SOUP	9	0	9	[0, 0, 0]	n/a	0	0	0	n/a	n/a	0.0	0	0	0	FR2	3	R1030J
933.995	1.6	1046308	WORD	n/a	wordpools/wordpool_EN.txt	TRUCK	10	0	9	[0, 0, 0]	n/a	0	0	0	n/a	n/a	0.0	0	0	0	FR2	3	R1030J
936.567	1.6	1048880	WORD	n/a	wordpools/wordpool_EN.txt	LAND	11	0	9	[0, 0, 0]	n/a	0	0	0	n/a	n/a	0.0	0	0	0	FR2	3	R1030J
939.186	1.6	1051499	WORD	n/a	wordpools/wordpool_EN.txt	BOWL	12	0	9	[0, 0, 0]	n/a	0	0	0	n/a	n/a	0.0	0	0	0	FR2	3	R1030J
940.79	0.001	1053102	DISTRACT_START	n/a	n/a	n/a	-999	0	9	[0, 0, 0]	n/a	0	0	0	n/a	n/a	0.0	0	0	0	FR2	3	R1030J
940.791	0.016	1053103	START	n/a	n/a	n/a	-999	0	9	[-999, -999, -999]	n/a	0	0	0	n/a	n/a	0.0	0	0	0	FR2	3	R1030J
940.807	3.756	1053119	PROB	3.732	n/a	n/a	-999	0	9	[5, 8, 7]	20	0	0	0	n/a	n/a	0.0	0	0	0	FR2	3	R1030J
944.563	2.47	1056875	PROB	2.447	n/a	n/a	-999	0	9	[2, 8, 6]	16	0	0	0	n/a	n/a	0.0	0	0	0	FR2	3	R1030J
947.033	1.97	1059345	PROB	1.937	n/a	n/a	-999	0	9	[1, 8, 2]	11	0	0	0	n/a	n/a	0.0	0	0	0	FR2	3	R1030J
949.003	2.421	1061315	PROB	2.4	n/a	n/a	-999	0	9	[7, 2, 1]	10	0	0	0	n/a	n/a	0.0	0	0	0	FR2	3	R1030J
951.424	2.02	1063735	PROB	1.995	n/a	n/a	-999	0	9	[2, 7, 1]	10	0	0	0	n/a	n/a	0.0	0	0	0	FR2	3	R1030J
953.444	2.354	1065755	PROB	2.319	n/a	n/a	-999	0	9	[8, 9, 1]	18	0	0	0	n/a	n/a	0.0	0	0	0	FR2	3	R1030J
955.798	3.305	1068109	PROB	3.268	n/a	n/a	-999	0	9	[5, 9, 1]	15	0	0	0	n/a	n/a	0.0	0	0	0	FR2	3	R1030J
959.103	2.364	1071414	PROB	2.364	n/a	n/a	-999	0	9	[6, 4, 8]	18	0	0	0	n/a	n/a	0.0	0	0	0	FR2	3	R1030J
961.467	0.008	1073777	STOP	n/a	n/a	n/a	-999	0	9	[-999, -999, -999]	n/a	0	0	0	n/a	n/a	0.0	0	0	0	FR2	3	R1030J
961.475	1.052	1073785	DISTRACT_END	n/a	n/a	n/a	-999	0	9	[0, 0, 0]	n/a	0	0	0	n/a	n/a	0.0	0	0	0	FR2	3	R1030J
962.527	9.916	1074837	REC_START	n/a	n/a	n/a	-999	0	9	[0, 0, 0]	n/a	0	0	0	n/a	n/a	0.0	0	0	0	FR2	3	R1030J
972.443	20.097	1084752	REC_WORD	9.916	n/a	TOOTH	-999	0	9	[0, 0, 0]	n/a	0	0	0	n/a	n/a	0.0	0	0	0	FR2	3	R1030J
992.54	2.007	1104847	REC_END	n/a	n/a	n/a	-999	0	9	[0, 0, 0]	n/a	0	0	0	n/a	n/a	0.0	0	0	0	FR2	3	R1030J
994.547	10.0	1106854	COUNTDOWN_START	n/a	n/a	n/a	-999	0	10	[0, 0, 0]	n/a	0	0	0	n/a	n/a	0.0	0	0	0	FR2	3	R1030J
994.547	10.428	1106854	TRIAL	n/a	n/a	n/a	-999	0	10	[0, 0, 0]	n/a	0	0	0	n/a	n/a	0.0	0	0	0	FR2	3	R1030J
1004.975	0.005	1117281	COUNTDOWN_END	n/a	n/a	n/a	-999	0	10	[0, 0, 0]	n/a	0	0	0	n/a	n/a	0.0	0	0	0	FR2	3	R1030J
1004.98	1.6	1117286	ORIENT	n/a	n/a	n/a	-999	0	10	[0, 0, 0]	n/a	0	0	0	n/a	n/a	0.0	0	0	0	FR2	3	R1030J
1007.519	1.6	1119825	WORD	n/a	wordpools/wordpool_EN.txt	SMILE	1	0	10	[0, 0, 0]	n/a	0	0	0	n/a	n/a	0.0	0	0	0	FR2	3	R1030J
1010.122	1.6	1122427	WORD	n/a	wordpools/wordpool_EN.txt	SNOW	2	0	10	[0, 0, 0]	n/a	0	0	0	n/a	n/a	0.0	0	0	0	FR2	3	R1030J
1012.51	1.6	1124815	WORD	n/a	wordpools/wordpool_EN.txt	MUD	3	0	10	[0, 0, 0]	n/a	0	0	0	n/a	n/a	0.0	0	0	0	FR2	3	R1030J
1015.114	1.6	1127419	WORD	n/a	wordpools/wordpool_EN.txt	SKI	4	0	10	[0, 0, 0]	n/a	0	0	0	n/a	n/a	0.0	0	0	0	FR2	3	R1030J
1017.72	1.6	1130025	WORD	n/a	wordpools/wordpool_EN.txt	FOG	5	0	10	[0, 0, 0]	n/a	0	0	0	n/a	n/a	0.0	0	0	0	FR2	3	R1030J
1020.122	1.6	1132426	WORD	n/a	wordpools/wordpool_EN.txt	PIN	6	0	10	[0, 0, 0]	n/a	0	0	0	n/a	n/a	0.0	0	0	0	FR2	3	R1030J
1022.544	1.6	1134848	WORD	n/a	wordpools/wordpool_EN.txt	HOLE	7	1	10	[0, 0, 0]	n/a	0	0	0	n/a	n/a	0.0	0	0	0	FR2	3	R1030J
1025.081	1.6	1137385	WORD	n/a	wordpools/wordpool_EN.txt	GEESE	8	1	10	[0, 0, 0]	n/a	0	0	0	n/a	n/a	0.0	0	0	0	FR2	3	R1030J
1027.719	1.6	1140023	WORD	n/a	wordpools/wordpool_EN.txt	VEST	9	0	10	[0, 0, 0]	n/a	0	0	0	n/a	n/a	0.0	0	0	0	FR2	3	R1030J
1030.289	1.6	1142592	WORD	n/a	wordpools/wordpool_EN.txt	HOSE	10	0	10	[0, 0, 0]	n/a	0	0	0	n/a	n/a	0.0	0	0	0	FR2	3	R1030J
1032.761	1.6	1145064	WORD	n/a	wordpools/wordpool_EN.txt	SHARK	11	0	10	[0, 0, 0]	n/a	0	0	0	n/a	n/a	0.0	0	0	0	FR2	3	R1030J
1035.198	1.6	1147501	WORD	n/a	wordpools/wordpool_EN.txt	FOAM	12	0	10	[0, 0, 0]	n/a	0	0	0	n/a	n/a	0.0	0	0	0	FR2	3	R1030J
1036.818	0.001	1149121	DISTRACT_START	n/a	n/a	n/a	-999	0	10	[0, 0, 0]	n/a	0	0	0	n/a	n/a	0.0	0	0	0	FR2	3	R1030J
1036.819	0.016	1149122	START	n/a	n/a	n/a	-999	0	10	[-999, -999, -999]	n/a	0	0	0	n/a	n/a	0.0	0	0	0	FR2	3	R1030J
1036.835	4.624	1149138	PROB	4.592	n/a	n/a	-999	0	10	[4, 9, 1]	14	0	0	0	n/a	n/a	0.0	0	0	0	FR2	3	R1030J
1041.459	2.271	1153761	PROB	2.24	n/a	n/a	-999	0	10	[3, 6, 2]	11	0	0	0	n/a	n/a	0.0	0	0	0	FR2	3	R1030J
1043.73	2.888	1156032	PROB	2.857	n/a	n/a	-999	0	10	[5, 2, 4]	11	0	0	0	n/a	n/a	0.0	0	0	0	FR2	3	R1030J
1046.618	4.623	1158920	PROB	4.6	n/a	n/a	-999	0	10	[1, 2, 4]	7	0	0	0	n/a	n/a	0.0	0	0	0	FR2	3	R1030J
1051.241	2.622	1163542	PROB	2.586	n/a	n/a	-999	0	10	[4, 9, 5]	18	0	0	0	n/a	n/a	0.0	0	0	0	FR2	3	R1030J
1053.863	3.123	1166164	PROB	3.123	n/a	n/a	-999	0	10	[5, 7, 1]	13	0	0	0	n/a	n/a	0.0	0	0	0	FR2	3	R1030J
1056.986	0.015	1169287	STOP	n/a	n/a	n/a	-999	0	10	[-999, -999, -999]	n/a	0	0	0	n/a	n/a	0.0	0	0	0	FR2	3	R1030J
1057.001	1.136	1169302	DISTRACT_END	n/a	n/a	n/a	-999	0	10	[0, 0, 0]	n/a	0	0	0	n/a	n/a	0.0	0	0	0	FR2	3	R1030J
1058.137	3.817	1170438	REC_START	n/a	n/a	n/a	-999	0	10	[0, 0, 0]	n/a	0	0	0	n/a	n/a	0.0	0	0	0	FR2	3	R1030J
1061.954	1.003	1174254	REC_WORD	3.817	n/a	GOLD	-999	0	10	[0, 0, 0]	n/a	0	0	0	n/a	n/a	0.0	0	0	0	FR2	3	R1030J
1062.957	7.542	1175257	REC_WORD	4.82	n/a	GEESE	8	1	10	[0, 0, 0]	n/a	0	0	0	n/a	n/a	0.0	0	0	0	FR2	3	R1030J
1070.499	8.86	1182798	REC_WORD	12.362	n/a	HOLE	7	1	10	[0, 0, 0]	n/a	0	0	0	n/a	n/a	0.0	0	0	0	FR2	3	R1030J
1079.359	5.338	1191657	REC_WORD	21.222	n/a	LAND	-999	0	10	[0, 0, 0]	n/a	0	0	0	n/a	n/a	0.0	0	0	0	FR2	3	R1030J
1084.697	3.453	1196995	REC_WORD	26.56	n/a	DOCK	-999	0	10	[0, 0, 0]	n/a	0	0	0	n/a	n/a	0.0	0	0	0	FR2	3	R1030J
1088.15	2.057	1200448	REC_END	n/a	n/a	n/a	-999	0	10	[0, 0, 0]	n/a	0	0	0	n/a	n/a	0.0	0	0	0	FR2	3	R1030J
1090.207	0.0	1202504	TRIAL	n/a	n/a	n/a	-999	0	11	[0, 0, 0]	n/a	0	1	0	n/a	n/a	0.0	0	0	0	FR2	3	R1030J
1090.207	10.0	1202504	COUNTDOWN_START	n/a	n/a	n/a	-999	0	11	[0, 0, 0]	n/a	0	1	0	n/a	n/a	0.0	0	0	0	FR2	3	R1030J
1100.635	0.007	1212931	COUNTDOWN_END	n/a	n/a	n/a	-999	0	11	[0, 0, 0]	n/a	0	1	0	n/a	n/a	0.0	0	0	0	FR2	3	R1030J
1100.642	1.6	1212938	ORIENT	n/a	n/a	n/a	-999	0	11	[0, 0, 0]	n/a	0	1	0	n/a	n/a	0.0	0	0	0	FR2	3	R1030J
1103.045	1.6	1215341	WORD	n/a	wordpools/wordpool_EN.txt	CHALK	1	0	11	[0, 0, 0]	n/a	0	1	0	n/a	n/a	0.0	0	0	0	FR2	3	R1030J
1105.651	1.6	1217947	WORD	n/a	wordpools/wordpool_EN.txt	DESK	2	0	11	[0, 0, 0]	n/a	0	1	0	n/a	n/a	0.0	0	0	0	FR2	3	R1030J
1108.039	4.6	1220335	STIM_ON	n/a	n/a	n/a	-999	0	11	[0, 0, 0]	n/a	1	1	4600	LQ2	LQ3	500.0	50	230	300	FR2	3	R1030J
1108.254	1.6	1220550	WORD	n/a	wordpools/wordpool_EN.txt	GLOVE	3	0	11	[0, 0, 0]	n/a	1	1	4600	LQ2	LQ3	500.0	50	230	300	FR2	3	R1030J
1110.843	1.6	1223138	WORD	n/a	wordpools/wordpool_EN.txt	BATH	4	0	11	[0, 0, 0]	n/a	1	1	4600	LQ2	LQ3	500.0	50	230	300	FR2	3	R1030J
1113.48	1.6	1225775	WORD	n/a	wordpools/wordpool_EN.txt	PHONE	5	0	11	[0, 0, 0]	n/a	0	1	0	n/a	n/a	0.0	0	0	0	FR2	3	R1030J
1115.884	1.6	1228179	WORD	n/a	wordpools/wordpool_EN.txt	BUSH	6	0	11	[0, 0, 0]	n/a	0	1	0	n/a	n/a	0.0	0	0	0	FR2	3	R1030J
1118.061	4.6	1230356	STIM_ON	n/a	n/a	n/a	-999	0	11	[0, 0, 0]	n/a	1	1	4600	LQ2	LQ3	500.0	50	230	300	FR2	3	R1030J
1118.271	1.6	1230566	WORD	n/a	wordpools/wordpool_EN.txt	CRANE	7	1	11	[0, 0, 0]	n/a	1	1	4600	LQ2	LQ3	500.0	50	230	300	FR2	3	R1030J
1120.843	1.6	1233137	WORD	n/a	wordpools/wordpool_EN.txt	ROOF	8	0	11	[0, 0, 0]	n/a	1	1	4600	LQ2	LQ3	500.0	50	230	300	FR2	3	R1030J
1123.431	1.6	1235725	WORD	n/a	wordpools/wordpool_EN.txt	HOOK	9	0	11	[0, 0, 0]	n/a	0	1	0	n/a	n/a	0.0	0	0	0	FR2	3	R1030J
1125.835	1.6	1238129	WORD	n/a	wordpools/wordpool_EN.txt	PARK	10	0	11	[0, 0, 0]	n/a	0	1	0	n/a	n/a	0.0	0	0	0	FR2	3	R1030J
1128.238	4.6	1240532	STIM_ON	n/a	n/a	n/a	-999	0	11	[0, 0, 0]	n/a	1	1	4600	LQ2	LQ3	500.0	50	230	300	FR2	3	R1030J
1128.456	1.6	1240750	WORD	n/a	wordpools/wordpool_EN.txt	SLIME	11	1	11	[0, 0, 0]	n/a	1	1	4600	LQ2	LQ3	500.0	50	230	300	FR2	3	R1030J
1130.926	1.6	1243219	WORD	n/a	wordpools/wordpool_EN.txt	CLOCK	12	1	11	[0, 0, 0]	n/a	1	1	4600	LQ2	LQ3	500.0	50	230	300	FR2	3	R1030J
1132.546	0.002	1244839	DISTRACT_START	n/a	n/a	n/a	-999	0	11	[0, 0, 0]	n/a	1	1	4600	LQ2	LQ3	500.0	50	230	300	FR2	3	R1030J
1132.548	0.015	1244841	START	n/a	n/a	n/a	-999	0	11	[-999, -999, -999]	n/a	0	1	0	n/a	n/a	0.0	0	0	0	FR2	3	R1030J
1132.563	3.404	1244856	PROB	3.376	n/a	n/a	-999	0	11	[5, 9, 3]	17	0	1	0	n/a	n/a	0.0	0	0	0	FR2	3	R1030J
1135.967	4.191	1248260	PROB	4.155	n/a	n/a	-999	0	11	[7, 8, 9]	24	0	1	0	n/a	n/a	0.0	0	0	0	FR2	3	R1030J
1140.158	2.153	1252450	PROB	2.132	n/a	n/a	-999	0	11	[2, 7, 1]	10	0	1	0	n/a	n/a	0.0	0	0	0	FR2	3	R1030J
1142.311	2.439	1254603	PROB	2.404	n/a	n/a	-999	0	11	[3, 7, 6]	16	0	1	0	n/a	n/a	0.0	0	0	0	FR2	3	R1030J
1144.75	2.704	1257042	PROB	2.677	n/a	n/a	-999	0	11	[7, 8, 9]	24	0	1	0	n/a	n/a	0.0	0	0	0	FR2	3	R1030J
1147.454	2.304	1259746	PROB	2.269	n/a	n/a	-999	0	11	[1, 2, 9]	12	0	1	0	n/a	n/a	0.0	0	0	0	FR2	3	R1030J
1149.758	2.605	1262049	PROB	2.572	n/a	n/a	-999	0	11	[6, 5, 6]	17	0	1	0	n/a	n/a	0.0	0	0	0	FR2	3	R1030J
1152.363	1.831	1264654	PROB	1.831	n/a	n/a	-999	0	11	[7, 1, 1]	9	0	1	0	n/a	n/a	0.0	0	0	0	FR2	3	R1030J
1154.194	0.021	1266485	STOP	n/a	n/a	n/a	-999	0	11	[-999, -999, -999]	n/a	0	1	0	n/a	n/a	0.0	0	0	0	FR2	3	R1030J
1154.215	1.102	1266506	DISTRACT_END	n/a	n/a	n/a	-999	0	11	[0, 0, 0]	n/a	0	1	0	n/a	n/a	0.0	0	0	0	FR2	3	R1030J
1155.317	3.541	1267608	REC_START	n/a	n/a	n/a	-999	0	11	[0, 0, 0]	n/a	0	1	0	n/a	n/a	0.0	0	0	0	FR2	3	R1030J
1158.858	3.185	1271148	REC_WORD	3.541	n/a	SLIME	11	1	11	[0, 0, 0]	n/a	0	1	0	n/a	n/a	0.0	0	0	0	FR2	3	R1030J
1162.043	13.678	1274333	REC_WORD	6.726	n/a	CLOCK	12	1	11	[0, 0, 0]	n/a	0	1	0	n/a	n/a	0.0	0	0	0	FR2	3	R1030J
1175.721	6.787	1288010	REC_WORD	20.404	n/a	BOARD	-999	0	11	[0, 0, 0]	n/a	0	1	0	n/a	n/a	0.0	0	0	0	FR2	3	R1030J
1182.508	2.822	1294796	REC_WORD	27.191	n/a	CRANE	7	1	11	[0, 0, 0]	n/a	0	1	0	n/a	n/a	0.0	0	0	0	FR2	3	R1030J
1185.33	2.058	1297618	REC_END	n/a	n/a	n/a	-999	0	11	[0, 0, 0]	n/a	0	1	0	n/a	n/a	0.0	0	0	0	FR2	3	R1030J
1187.388	10.0	1299676	COUNTDOWN_START	n/a	n/a	n/a	-999	0	12	[0, 0, 0]	n/a	0	1	0	n/a	n/a	0.0	0	0	0	FR2	3	R1030J
1187.388	10.428	1299676	TRIAL	n/a	n/a	n/a	-999	0	12	[0, 0, 0]	n/a	0	1	0	n/a	n/a	0.0	0	0	0	FR2	3	R1030J
1197.816	0.006	1310103	COUNTDOWN_END	n/a	n/a	n/a	-999	0	12	[0, 0, 0]	n/a	0	1	0	n/a	n/a	0.0	0	0	0	FR2	3	R1030J
1197.822	1.6	1310109	ORIENT	n/a	n/a	n/a	-999	0	12	[0, 0, 0]	n/a	0	1	0	n/a	n/a	0.0	0	0	0	FR2	3	R1030J
1200.086	4.6	1312372	STIM_ON	n/a	n/a	n/a	-999	0	12	[0, 0, 0]	n/a	1	1	4600	LQ2	LQ3	500.0	50	230	300	FR2	3	R1030J
1200.292	1.6	1312578	WORD	n/a	wordpools/wordpool_EN.txt	CHIN	1	0	12	[0, 0, 0]	n/a	1	1	4600	LQ2	LQ3	500.0	50	230	300	FR2	3	R1030J
1202.798	1.6	1315084	WORD	n/a	wordpools/wordpool_EN.txt	SKY	2	1	12	[0, 0, 0]	n/a	1	1	4600	LQ2	LQ3	500.0	50	230	300	FR2	3	R1030J
1205.385	1.6	1317671	WORD	n/a	wordpools/wordpool_EN.txt	HEN	3	0	12	[0, 0, 0]	n/a	0	1	0	n/a	n/a	0.0	0	0	0	FR2	3	R1030J
1207.955	1.6	1320241	WORD	n/a	wordpools/wordpool_EN.txt	BEAK	4	0	12	[0, 0, 0]	n/a	0	1	0	n/a	n/a	0.0	0	0	0	FR2	3	R1030J
1210.146	4.6	1322431	STIM_ON	n/a	n/a	n/a	-999	0	12	[0, 0, 0]	n/a	1	1	4600	LQ2	LQ3	500.0	50	230	300	FR2	3	R1030J
1210.36	1.6	1322645	WORD	n/a	wordpools/wordpool_EN.txt	RAT	5	1	12	[0, 0, 0]	n/a	1	1	4600	LQ2	LQ3	500.0	50	230	300	FR2	3	R1030J
1212.764	1.6	1325049	WORD	n/a	wordpools/wordpool_EN.txt	WALL	6	0	12	[0, 0, 0]	n/a	1	1	4600	LQ2	LQ3	500.0	50	230	300	FR2	3	R1030J
1215.334	1.6	1327619	WORD	n/a	wordpools/wordpool_EN.txt	WOLF	7	0	12	[0, 0, 0]	n/a	0	1	0	n/a	n/a	0.0	0	0	0	FR2	3	R1030J
1217.889	1.6	1330174	WORD	n/a	wordpools/wordpool_EN.txt	BRICK	8	0	12	[0, 0, 0]	n/a	0	1	0	n/a	n/a	0.0	0	0	0	FR2	3	R1030J
1220.192	4.6	1332476	STIM_ON	n/a	n/a	n/a	-999	0	12	[0, 0, 0]	n/a	1	1	4600	LQ2	LQ3	500.0	50	230	300	FR2	3	R1030J
1220.41	1.6	1332694	WORD	n/a	wordpools/wordpool_EN.txt	RUG	9	1	12	[0, 0, 0]	n/a	1	1	4600	LQ2	LQ3	500.0	50	230	300	FR2	3	R1030J
1222.98	1.6	1335264	WORD	n/a	wordpools/wordpool_EN.txt	WEB	10	0	12	[0, 0, 0]	n/a	1	1	4600	LQ2	LQ3	500.0	50	230	300	FR2	3	R1030J
1225.503	1.6	1337787	WORD	n/a	wordpools/wordpool_EN.txt	DUCK	11	0	12	[0, 0, 0]	n/a	0	1	0	n/a	n/a	0.0	0	0	0	FR2	3	R1030J
1227.955	1.6	1340238	WORD	n/a	wordpools/wordpool_EN.txt	GRASS	12	0	12	[0, 0, 0]	n/a	0	1	0	n/a	n/a	0.0	0	0	0	FR2	3	R1030J
1229.559	0.001	1341842	DISTRACT_START	n/a	n/a	n/a	-999	0	12	[0, 0, 0]	n/a	0	1	0	n/a	n/a	0.0	0	0	0	FR2	3	R1030J
1229.56	0.016	1341843	START	n/a	n/a	n/a	-999	0	12	[-999, -999, -999]	n/a	0	1	0	n/a	n/a	0.0	0	0	0	FR2	3	R1030J
1229.576	3.555	1341859	PROB	3.522	n/a	n/a	-999	0	12	[7, 6, 4]	17	0	1	0	n/a	n/a	0.0	0	0	0	FR2	3	R1030J
1233.131	3.856	1345414	PROB	3.831	n/a	n/a	-999	0	12	[3, 8, 9]	20	0	1	0	n/a	n/a	0.0	0	0	0	FR2	3	R1030J
1236.987	2.154	1349270	PROB	2.119	n/a	n/a	-999	0	12	[6, 3, 7]	16	0	1	0	n/a	n/a	0.0	0	0	0	FR2	3	R1030J
1239.141	2.838	1351423	PROB	2.806	n/a	n/a	-999	0	12	[2, 9, 5]	16	0	1	0	n/a	n/a	0.0	0	0	0	FR2	3	R1030J
1241.979	2.522	1354261	PROB	2.496	n/a	n/a	-999	0	12	[4, 9, 4]	17	0	1	0	n/a	n/a	0.0	0	0	0	FR2	3	R1030J
1244.501	2.12	1356783	PROB	2.094	n/a	n/a	-999	0	12	[1, 2, 8]	11	0	1	0	n/a	n/a	0.0	0	0	0	FR2	3	R1030J
1246.621	2.603	1358903	PROB	2.565	n/a	n/a	-999	0	12	[2, 4, 8]	14	0	1	0	n/a	n/a	0.0	0	0	0	FR2	3	R1030J
1249.224	3.467	1361505	PROB	3.467	n/a	n/a	-999	0	12	[7, 9, 4]	20	0	1	0	n/a	n/a	0.0	0	0	0	FR2	3	R1030J
1252.691	0.007	1364972	STOP	n/a	n/a	n/a	-999	0	12	[-999, -999, -999]	n/a	0	1	0	n/a	n/a	0.0	0	0	0	FR2	3	R1030J
1252.698	1.036	1364979	DISTRACT_END	n/a	n/a	n/a	-999	0	12	[0, 0, 0]	n/a	0	1	0	n/a	n/a	0.0	0	0	0	FR2	3	R1030J
1253.734	4.868	1366015	REC_START	n/a	n/a	n/a	-999	0	12	[0, 0, 0]	n/a	0	1	0	n/a	n/a	0.0	0	0	0	FR2	3	R1030J
1258.602	2.883	1370882	REC_WORD	4.868	n/a	RUG	9	1	12	[0, 0, 0]	n/a	0	1	0	n/a	n/a	0.0	0	0	0	FR2	3	R1030J
1261.485	7.647	1373765	REC_WORD	7.751	n/a	RAT	5	1	12	[0, 0, 0]	n/a	0	1	0	n/a	n/a	0.0	0	0	0	FR2	3	R1030J
1269.132	14.614	1381411	REC_WORD	15.398	n/a	SKY	2	1	12	[0, 0, 0]	n/a	0	1	0	n/a	n/a	0.0	0	0	0	FR2	3	R1030J
1283.746	1.974	1396024	REC_END	n/a	n/a	n/a	-999	0	12	[0, 0, 0]	n/a	0	1	0	n/a	n/a	0.0	0	0	0	FR2	3	R1030J
1285.72	10.0	1397998	COUNTDOWN_START	n/a	n/a	n/a	-999	0	13	[0, 0, 0]	n/a	0	1	0	n/a	n/a	0.0	0	0	0	FR2	3	R1030J
1285.721	10.427	1397999	TRIAL	n/a	n/a	n/a	-999	0	13	[0, 0, 0]	n/a	0	1	0	n/a	n/a	0.0	0	0	0	FR2	3	R1030J
1296.148	0.005	1408425	COUNTDOWN_END	n/a	n/a	n/a	-999	0	13	[0, 0, 0]	n/a	0	1	0	n/a	n/a	0.0	0	0	0	FR2	3	R1030J
1296.153	1.6	1408430	ORIENT	n/a	n/a	n/a	-999	0	13	[0, 0, 0]	n/a	0	1	0	n/a	n/a	0.0	0	0	0	FR2	3	R1030J
1298.409	4.6	1410685	STIM_ON	n/a	n/a	n/a	-999	0	13	[0, 0, 0]	n/a	1	1	4600	LQ2	LQ3	500.0	50	230	300	FR2	3	R1030J
1298.625	1.6	1410901	WORD	n/a	wordpools/wordpool_EN.txt	PLANT	1	0	13	[0, 0, 0]	n/a	1	1	4600	LQ2	LQ3	500.0	50	230	300	FR2	3	R1030J
1301.045	1.6	1413321	WORD	n/a	wordpools/wordpool_EN.txt	STEM	2	0	13	[0, 0, 0]	n/a	1	1	4600	LQ2	LQ3	500.0	50	230	300	FR2	3	R1030J
1303.6	1.6	1415876	WORD	n/a	wordpools/wordpool_EN.txt	CAR	3	0	13	[0, 0, 0]	n/a	0	1	0	n/a	n/a	0.0	0	0	0	FR2	3	R1030J
1306.004	1.6	1418280	WORD	n/a	wordpools/wordpool_EN.txt	ROCK	4	0	13	[0, 0, 0]	n/a	0	1	0	n/a	n/a	0.0	0	0	0	FR2	3	R1030J
1308.208	4.6	1420483	STIM_ON	n/a	n/a	n/a	-999	0	13	[0, 0, 0]	n/a	1	1	4600	LQ2	LQ3	500.0	50	230	300	FR2	3	R1030J
1308.425	1.6	1420700	WORD	n/a	wordpools/wordpool_EN.txt	SUN	5	0	13	[0, 0, 0]	n/a	1	1	4600	LQ2	LQ3	500.0	50	230	300	FR2	3	R1030J
1310.879	1.6	1423154	WORD	n/a	wordpools/wordpool_EN.txt	ICE	6	0	13	[0, 0, 0]	n/a	1	1	4600	LQ2	LQ3	500.0	50	230	300	FR2	3	R1030J
1313.45	1.6	1425725	WORD	n/a	wordpools/wordpool_EN.txt	BOMB	7	0	13	[0, 0, 0]	n/a	0	1	0	n/a	n/a	0.0	0	0	0	FR2	3	R1030J
1315.97	1.6	1428245	WORD	n/a	wordpools/wordpool_EN.txt	KEY	8	0	13	[0, 0, 0]	n/a	0	1	0	n/a	n/a	0.0	0	0	0	FR2	3	R1030J
1318.183	4.6	1430457	STIM_ON	n/a	n/a	n/a	-999	0	13	[0, 0, 0]	n/a	1	1	4600	LQ2	LQ3	500.0	50	230	300	FR2	3	R1030J
1318.392	1.6	1430666	WORD	n/a	wordpools/wordpool_EN.txt	MOON	9	1	13	[0, 0, 0]	n/a	1	1	4600	LQ2	LQ3	500.0	50	230	300	FR2	3	R1030J
1320.846	1.6	1433120	WORD	n/a	wordpools/wordpool_EN.txt	STAR	10	1	13	[0, 0, 0]	n/a	1	1	4600	LQ2	LQ3	500.0	50	230	300	FR2	3	R1030J
1323.367	1.6	1435641	WORD	n/a	wordpools/wordpool_EN.txt	FLUTE	11	0	13	[0, 0, 0]	n/a	0	1	0	n/a	n/a	0.0	0	0	0	FR2	3	R1030J
1325.804	1.6	1438078	WORD	n/a	wordpools/wordpool_EN.txt	MAP	12	0	13	[0, 0, 0]	n/a	0	1	0	n/a	n/a	0.0	0	0	0	FR2	3	R1030J
1327.424	0.001	1439697	DISTRACT_START	n/a	n/a	n/a	-999	0	13	[0, 0, 0]	n/a	0	1	0	n/a	n/a	0.0	0	0	0	FR2	3	R1030J
1327.425	0.015	1439698	START	n/a	n/a	n/a	-999	0	13	[-999, -999, -999]	n/a	0	1	0	n/a	n/a	0.0	0	0	0	FR2	3	R1030J
1327.44	2.821	1439713	PROB	2.794	n/a	n/a	-999	0	13	[2, 8, 8]	18	0	1	0	n/a	n/a	0.0	0	0	0	FR2	3	R1030J
1330.261	3.457	1442534	PROB	3.43	n/a	n/a	-999	0	13	[6, 5, 3]	14	0	1	0	n/a	n/a	0.0	0	0	0	FR2	3	R1030J
1333.718	2.137	1445991	PROB	2.101	n/a	n/a	-999	0	13	[9, 7, 3]	19	0	1	0	n/a	n/a	0.0	0	0	0	FR2	3	R1030J
1335.855	2.319	1448128	PROB	2.291	n/a	n/a	-999	0	13	[5, 6, 6]	17	0	1	0	n/a	n/a	0.0	0	0	0	FR2	3	R1030J
1338.174	2.087	1450446	PROB	2.06	n/a	n/a	-999	0	13	[6, 1, 2]	9	0	1	0	n/a	n/a	0.0	0	0	0	FR2	3	R1030J
1340.261	2.272	1452533	PROB	2.246	n/a	n/a	-999	0	13	[5, 6, 1]	12	0	1	0	n/a	n/a	0.0	0	0	0	FR2	3	R1030J
1342.533	2.67	1454805	PROB	2.645	n/a	n/a	-999	0	13	[8, 2, 9]	19	0	1	0	n/a	n/a	0.0	0	0	0	FR2	3	R1030J
1345.203	2.815	1457475	PROB	2.815	n/a	n/a	-999	0	13	[1, 8, 7]	16	0	1	0	n/a	n/a	0.0	0	0	0	FR2	3	R1030J
1348.018	0.006	1460289	STOP	n/a	n/a	n/a	-999	0	13	[-999, -999, -999]	n/a	0	1	0	n/a	n/a	0.0	0	0	0	FR2	3	R1030J
1348.024	1.102	1460295	DISTRACT_END	n/a	n/a	n/a	-999	0	13	[0, 0, 0]	n/a	0	1	0	n/a	n/a	0.0	0	0	0	FR2	3	R1030J
1349.126	3.828	1461397	REC_START	n/a	n/a	n/a	-999	0	13	[0, 0, 0]	n/a	0	1	0	n/a	n/a	0.0	0	0	0	FR2	3	R1030J
1352.954	1.229	1465225	REC_WORD	3.828	n/a	MOON	9	1	13	[0, 0, 0]	n/a	0	1	0	n/a	n/a	0.0	0	0	0	FR2	3	R1030J
1354.183	9.047	1466454	REC_WORD	5.057	n/a	STAR	10	1	13	[0, 0, 0]	n/a	0	1	0	n/a	n/a	0.0	0	0	0	FR2	3	R1030J
1363.23	15.916	1475500	REC_WORD	14.104	n/a	CAPE	-999	0	13	[0, 0, 0]	n/a	0	1	0	n/a	n/a	0.0	0	0	0	FR2	3	R1030J
1379.146	2.352	1491414	REC_END	n/a	n/a	n/a	-999	0	13	[0, 0, 0]	n/a	0	1	0	n/a	n/a	0.0	0	0	0	FR2	3	R1030J
1381.498	0.0	1493766	TRIAL	n/a	n/a	n/a	-999	0	14	[0, 0, 0]	n/a	0	1	0	n/a	n/a	0.0	0	0	0	FR2	3	R1030J
1381.498	10.0	1493766	COUNTDOWN_START	n/a	n/a	n/a	-999	0	14	[0, 0, 0]	n/a	0	1	0	n/a	n/a	0.0	0	0	0	FR2	3	R1030J
1391.926	0.006	1504193	COUNTDOWN_END	n/a	n/a	n/a	-999	0	14	[0, 0, 0]	n/a	0	1	0	n/a	n/a	0.0	0	0	0	FR2	3	R1030J
1391.932	1.6	1504199	ORIENT	n/a	n/a	n/a	-999	0	14	[0, 0, 0]	n/a	0	1	0	n/a	n/a	0.0	0	0	0	FR2	3	R1030J
1394.324	4.6	1506591	STIM_ON	n/a	n/a	n/a	-999	0	14	[0, 0, 0]	n/a	1	1	4600	LQ2	LQ3	500.0	50	230	300	FR2	3	R1030J
1394.537	1.6	1506804	WORD	n/a	wordpools/wordpool_EN.txt	BADGE	1	0	14	[0, 0, 0]	n/a	1	1	4600	LQ2	LQ3	500.0	50	230	300	FR2	3	R1030J
1397.057	1.6	1509323	WORD	n/a	wordpools/wordpool_EN.txt	HEART	2	0	14	[0, 0, 0]	n/a	1	1	4600	LQ2	LQ3	500.0	50	230	300	FR2	3	R1030J
1399.662	1.6	1511928	WORD	n/a	wordpools/wordpool_EN.txt	SHEET	3	0	14	[0, 0, 0]	n/a	0	1	0	n/a	n/a	0.0	0	0	0	FR2	3	R1030J
1402.215	1.6	1514481	WORD	n/a	wordpools/wordpool_EN.txt	WEED	4	0	14	[0, 0, 0]	n/a	0	1	0	n/a	n/a	0.0	0	0	0	FR2	3	R1030J
1404.412	4.6	1516678	STIM_ON	n/a	n/a	n/a	-999	0	14	[0, 0, 0]	n/a	1	1	4600	LQ2	LQ3	500.0	50	230	300	FR2	3	R1030J
1404.62	1.6	1516886	WORD	n/a	wordpools/wordpool_EN.txt	JUICE	5	0	14	[0, 0, 0]	n/a	1	1	4600	LQ2	LQ3	500.0	50	230	300	FR2	3	R1030J
1407.257	1.6	1519522	WORD	n/a	wordpools/wordpool_EN.txt	SCHOOL	6	0	14	[0, 0, 0]	n/a	1	1	4600	LQ2	LQ3	500.0	50	230	300	FR2	3	R1030J
1409.862	1.6	1522127	WORD	n/a	wordpools/wordpool_EN.txt	JAIL	7	0	14	[0, 0, 0]	n/a	0	1	0	n/a	n/a	0.0	0	0	0	FR2	3	R1030J
1412.433	1.6	1524698	WORD	n/a	wordpools/wordpool_EN.txt	CROW	8	0	14	[0, 0, 0]	n/a	0	1	0	n/a	n/a	0.0	0	0	0	FR2	3	R1030J
1414.752	4.6	1527017	STIM_ON	n/a	n/a	n/a	-999	0	14	[0, 0, 0]	n/a	1	1	4600	LQ2	LQ3	500.0	50	230	300	FR2	3	R1030J
1414.97	1.6	1527235	WORD	n/a	wordpools/wordpool_EN.txt	OAK	9	0	14	[0, 0, 0]	n/a	1	1	4600	LQ2	LQ3	500.0	50	230	300	FR2	3	R1030J
1417.509	1.6	1529773	WORD	n/a	wordpools/wordpool_EN.txt	CLOWN	10	0	14	[0, 0, 0]	n/a	1	1	4600	LQ2	LQ3	500.0	50	230	300	FR2	3	R1030J
1419.962	1.6	1532226	WORD	n/a	wordpools/wordpool_EN.txt	CALF	11	0	14	[0, 0, 0]	n/a	0	1	0	n/a	n/a	0.0	0	0	0	FR2	3	R1030J
1422.5	1.6	1534764	WORD	n/a	wordpools/wordpool_EN.txt	HORSE	12	0	14	[0, 0, 0]	n/a	0	1	0	n/a	n/a	0.0	0	0	0	FR2	3	R1030J
1424.119	0.001	1536383	DISTRACT_START	n/a	n/a	n/a	-999	0	14	[0, 0, 0]	n/a	0	1	0	n/a	n/a	0.0	0	0	0	FR2	3	R1030J
1424.12	0.015	1536384	START	n/a	n/a	n/a	-999	0	14	[-999, -999, -999]	n/a	0	1	0	n/a	n/a	0.0	0	0	0	FR2	3	R1030J
1424.135	4.776	1536399	PROB	4.748	n/a	n/a	-999	0	14	[4, 7, 9]	20	0	1	0	n/a	n/a	0.0	0	0	0	FR2	3	R1030J
1428.911	2.521	1541174	PROB	2.5	n/a	n/a	-999	0	14	[9, 9, 6]	24	0	1	0	n/a	n/a	0.0	0	0	0	FR2	3	R1030J
1431.432	3.839	1543695	PROB	3.81	n/a	n/a	-999	0	14	[4, 7, 9]	20	0	1	0	n/a	n/a	0.0	0	0	0	FR2	3	R1030J
1435.271	3.49	1547534	PROB	3.452	n/a	n/a	-999	0	14	[7, 5, 8]	20	0	1	0	n/a	n/a	0.0	0	0	0	FR2	3	R1030J
1438.761	3.472	1551023	PROB	3.433	n/a	n/a	-999	0	14	[6, 1, 3]	10	0	1	0	n/a	n/a	0.0	0	0	0	FR2	3	R1030J
1442.233	2.386	1554495	PROB	2.386	n/a	n/a	-999	0	14	[8, 1, 8]	17	0	1	0	n/a	n/a	0.0	0	0	0	FR2	3	R1030J
1444.619	0.019	1556881	STOP	n/a	n/a	n/a	-999	0	14	[-999, -999, -999]	n/a	0	1	0	n/a	n/a	0.0	0	0	0	FR2	3	R1030J
1444.638	1.135	1556900	DISTRACT_END	n/a	n/a	n/a	-999	0	14	[0, 0, 0]	n/a	0	1	0	n/a	n/a	0.0	0	0	0	FR2	3	R1030J
1445.773	17.68	1558035	REC_START	n/a	n/a	n/a	-999	0	14	[0, 0, 0]	n/a	0	1	0	n/a	n/a	0.0	0	0	0	FR2	3	R1030J
1463.453	6.92	1575713	REC_WORD	17.68	n/a	BAT	-999	0	14	[0, 0, 0]	n/a	0	1	0	n/a	n/a	0.0	0	0	0	FR2	3	R1030J
1470.373	3.981	1582632	REC_WORD	24.6	n/a	PEAR	-999	0	14	[0, 0, 0]	n/a	0	1	0	n/a	n/a	0.0	0	0	0	FR2	3	R1030J
1474.354	1.44	1586613	REC_WORD	28.581	n/a	HOLE	-999	0	14	[0, 0, 0]	n/a	0	1	0	n/a	n/a	0.0	0	0	0	FR2	3	R1030J
1475.794	2.466	1588052	REC_END	n/a	n/a	n/a	-999	0	14	[0, 0, 0]	n/a	0	1	0	n/a	n/a	0.0	0	0	0	FR2	3	R1030J
1478.26	0.0	1590518	TRIAL	n/a	n/a	n/a	-999	0	15	[0, 0, 0]	n/a	0	1	0	n/a	n/a	0.0	0	0	0	FR2	3	R1030J
1478.26	10.0	1590518	COUNTDOWN_START	n/a	n/a	n/a	-999	0	15	[0, 0, 0]	n/a	0	1	0	n/a	n/a	0.0	0	0	0	FR2	3	R1030J
1488.688	0.007	1600945	COUNTDOWN_END	n/a	n/a	n/a	-999	0	15	[0, 0, 0]	n/a	0	1	0	n/a	n/a	0.0	0	0	0	FR2	3	R1030J
1488.695	1.6	1600952	ORIENT	n/a	n/a	n/a	-999	0	15	[0, 0, 0]	n/a	0	1	0	n/a	n/a	0.0	0	0	0	FR2	3	R1030J
1491.232	1.6	1603489	WORD	n/a	wordpools/wordpool_EN.txt	CAVE	1	0	15	[0, 0, 0]	n/a	0	1	0	n/a	n/a	0.0	0	0	0	FR2	3	R1030J
1493.788	1.6	1606045	WORD	n/a	wordpools/wordpool_EN.txt	THREAD	2	0	15	[0, 0, 0]	n/a	0	1	0	n/a	n/a	0.0	0	0	0	FR2	3	R1030J
1496.105	4.6	1608361	STIM_ON	n/a	n/a	n/a	-999	0	15	[0, 0, 0]	n/a	1	1	4600	LQ2	LQ3	500.0	50	230	300	FR2	3	R1030J
1496.324	1.6	1608580	WORD	n/a	wordpools/wordpool_EN.txt	EEL	3	0	15	[0, 0, 0]	n/a	1	1	4600	LQ2	LQ3	500.0	50	230	300	FR2	3	R1030J
1498.896	1.6	1611152	WORD	n/a	wordpools/wordpool_EN.txt	BRIDGE	4	0	15	[0, 0, 0]	n/a	1	1	4600	LQ2	LQ3	500.0	50	230	300	FR2	3	R1030J
1501.417	1.6	1613673	WORD	n/a	wordpools/wordpool_EN.txt	PRINCE	5	0	15	[0, 0, 0]	n/a	0	1	0	n/a	n/a	0.0	0	0	0	FR2	3	R1030J
1503.953	1.6	1616209	WORD	n/a	wordpools/wordpool_EN.txt	CLOUD	6	0	15	[0, 0, 0]	n/a	0	1	0	n/a	n/a	0.0	0	0	0	FR2	3	R1030J
1506.172	4.6	1618427	STIM_ON	n/a	n/a	n/a	-999	0	15	[0, 0, 0]	n/a	1	1	4600	LQ2	LQ3	500.0	50	230	300	FR2	3	R1030J
1506.392	1.6	1618647	WORD	n/a	wordpools/wordpool_EN.txt	SHIELD	7	0	15	[0, 0, 0]	n/a	1	1	4600	LQ2	LQ3	500.0	50	230	300	FR2	3	R1030J
1508.812	1.6	1621067	WORD	n/a	wordpools/wordpool_EN.txt	STONE	8	0	15	[0, 0, 0]	n/a	1	1	4600	LQ2	LQ3	500.0	50	230	300	FR2	3	R1030J
1511.265	1.6	1623520	WORD	n/a	wordpools/wordpool_EN.txt	BOAT	9	0	15	[0, 0, 0]	n/a	0	1	0	n/a	n/a	0.0	0	0	0	FR2	3	R1030J
1513.721	1.6	1625976	WORD	n/a	wordpools/wordpool_EN.txt	SQUARE	10	0	15	[0, 0, 0]	n/a	0	1	0	n/a	n/a	0.0	0	0	0	FR2	3	R1030J
1516.004	4.6	1628258	STIM_ON	n/a	n/a	n/a	-999	0	15	[0, 0, 0]	n/a	1	1	4600	LQ2	LQ3	500.0	50	230	300	FR2	3	R1030J
1516.224	1.6	1628478	WORD	n/a	wordpools/wordpool_EN.txt	WAVE	11	0	15	[0, 0, 0]	n/a	1	1	4600	LQ2	LQ3	500.0	50	230	300	FR2	3	R1030J
1518.829	1.6	1631083	WORD	n/a	wordpools/wordpool_EN.txt	FLAG	12	0	15	[0, 0, 0]	n/a	1	1	4600	LQ2	LQ3	500.0	50	230	300	FR2	3	R1030J
1520.449	0.001	1632703	DISTRACT_START	n/a	n/a	n/a	-999	0	15	[0, 0, 0]	n/a	1	1	4600	LQ2	LQ3	500.0	50	230	300	FR2	3	R1030J
1520.45	0.015	1632704	START	n/a	n/a	n/a	-999	0	15	[-999, -999, -999]	n/a	0	1	0	n/a	n/a	0.0	0	0	0	FR2	3	R1030J
1520.465	3.039	1632719	PROB	3.01	n/a	n/a	-999	0	15	[7, 4, 1]	12	0	1	0	n/a	n/a	0.0	0	0	0	FR2	3	R1030J
1523.504	2.57	1635758	PROB	2.546	n/a	n/a	-999	0	15	[2, 5, 3]	10	0	1	0	n/a	n/a	0.0	0	0	0	FR2	3	R1030J
1526.074	2.855	1638327	PROB	2.833	n/a	n/a	-999	0	15	[9, 7, 2]	18	0	1	0	n/a	n/a	0.0	0	0	0	FR2	3	R1030J
1528.929	2.004	1641182	PROB	1.97	n/a	n/a	-999	0	15	[7, 7, 7]	21	0	1	0	n/a	n/a	0.0	0	0	0	FR2	3	R1030J
1530.933	2.253	1643186	PROB	2.229	n/a	n/a	-999	0	15	[6, 3, 3]	12	0	1	0	n/a	n/a	0.0	0	0	0	FR2	3	R1030J
1533.186	2.838	1645439	PROB	2.8	n/a	n/a	-999	0	15	[3, 6, 7]	16	0	1	0	n/a	n/a	0.0	0	0	0	FR2	3	R1030J
1536.024	2.988	1648276	PROB	2.962	n/a	n/a	-999	0	15	[6, 5, 7]	18	0	1	0	n/a	n/a	0.0	0	0	0	FR2	3	R1030J
1539.012	3.663	1651264	PROB	3.663	n/a	n/a	-999	0	15	[6, 2, 7]	15	0	1	0	n/a	n/a	0.0	0	0	0	FR2	3	R1030J
1542.675	0.011	1654927	STOP	n/a	n/a	n/a	-999	0	15	[-999, -999, -999]	n/a	0	1	0	n/a	n/a	0.0	0	0	0	FR2	3	R1030J
1542.686	1.219	1654938	DISTRACT_END	n/a	n/a	n/a	-999	0	15	[0, 0, 0]	n/a	0	1	0	n/a	n/a	0.0	0	0	0	FR2	3	R1030J
1543.905	30.023	1656157	REC_START	n/a	n/a	n/a	-999	0	15	[0, 0, 0]	n/a	0	1	0	n/a	n/a	0.0	0	0	0	FR2	3	R1030J
1573.928	0.006	1686177	REC_WORD_VV	30.023	n/a	<>	-999	0	15	[0, 0, 0]	n/a	0	1	0	n/a	n/a	0.0	0	0	0	FR2	3	R1030J
1573.934	2.124	1686183	REC_END	n/a	n/a	n/a	-999	0	15	[0, 0, 0]	n/a	0	1	0	n/a	n/a	0.0	0	0	0	FR2	3	R1030J
1576.058	0.0	1688306	TRIAL	n/a	n/a	n/a	-999	0	16	[0, 0, 0]	n/a	0	1	0	n/a	n/a	0.0	0	0	0	FR2	3	R1030J
1576.058	10.0	1688306	COUNTDOWN_START	n/a	n/a	n/a	-999	0	16	[0, 0, 0]	n/a	0	1	0	n/a	n/a	0.0	0	0	0	FR2	3	R1030J
1586.486	0.007	1698733	COUNTDOWN_END	n/a	n/a	n/a	-999	0	16	[0, 0, 0]	n/a	0	1	0	n/a	n/a	0.0	0	0	0	FR2	3	R1030J
1586.493	1.6	1698740	ORIENT	n/a	n/a	n/a	-999	0	16	[0, 0, 0]	n/a	0	1	0	n/a	n/a	0.0	0	0	0	FR2	3	R1030J
1589.013	1.6	1701260	WORD	n/a	wordpools/wordpool_EN.txt	MAIL	1	0	16	[0, 0, 0]	n/a	0	1	0	n/a	n/a	0.0	0	0	0	FR2	3	R1030J
1591.635	1.6	1703882	WORD	n/a	wordpools/wordpool_EN.txt	CROWN	2	0	16	[0, 0, 0]	n/a	0	1	0	n/a	n/a	0.0	0	0	0	FR2	3	R1030J
1593.82	4.6	1706067	STIM_ON	n/a	n/a	n/a	-999	0	16	[0, 0, 0]	n/a	1	1	4600	LQ2	LQ3	500.0	50	230	300	FR2	3	R1030J
1594.038	1.6	1706285	WORD	n/a	wordpools/wordpool_EN.txt	MAZE	3	0	16	[0, 0, 0]	n/a	1	1	4600	LQ2	LQ3	500.0	50	230	300	FR2	3	R1030J
1596.51	1.6	1708756	WORD	n/a	wordpools/wordpool_EN.txt	BAG	4	0	16	[0, 0, 0]	n/a	1	1	4600	LQ2	LQ3	500.0	50	230	300	FR2	3	R1030J
1599.08	1.6	1711326	WORD	n/a	wordpools/wordpool_EN.txt	COIN	5	0	16	[0, 0, 0]	n/a	0	1	0	n/a	n/a	0.0	0	0	0	FR2	3	R1030J
1601.702	1.6	1713948	WORD	n/a	wordpools/wordpool_EN.txt	BALL	6	0	16	[0, 0, 0]	n/a	0	1	0	n/a	n/a	0.0	0	0	0	FR2	3	R1030J
1603.951	4.6	1716197	STIM_ON	n/a	n/a	n/a	-999	0	16	[0, 0, 0]	n/a	1	1	4600	LQ2	LQ3	500.0	50	230	300	FR2	3	R1030J
1604.172	1.6	1716418	WORD	n/a	wordpools/wordpool_EN.txt	CLAY	7	1	16	[0, 0, 0]	n/a	1	1	4600	LQ2	LQ3	500.0	50	230	300	FR2	3	R1030J
1606.594	1.6	1718839	WORD	n/a	wordpools/wordpool_EN.txt	BAT	8	1	16	[0, 0, 0]	n/a	1	1	4600	LQ2	LQ3	500.0	50	230	300	FR2	3	R1030J
1609.18	1.6	1721425	WORD	n/a	wordpools/wordpool_EN.txt	TOOL	9	0	16	[0, 0, 0]	n/a	0	1	0	n/a	n/a	0.0	0	0	0	FR2	3	R1030J
1611.685	1.6	1723930	WORD	n/a	wordpools/wordpool_EN.txt	DOG	10	1	16	[0, 0, 0]	n/a	0	1	0	n/a	n/a	0.0	0	0	0	FR2	3	R1030J
1613.966	4.6	1726211	STIM_ON	n/a	n/a	n/a	-999	0	16	[0, 0, 0]	n/a	1	1	4600	LQ2	LQ3	500.0	50	230	300	FR2	3	R1030J
1614.172	1.6	1726417	WORD	n/a	wordpools/wordpool_EN.txt	HOOF	11	0	16	[0, 0, 0]	n/a	1	1	4600	LQ2	LQ3	500.0	50	230	300	FR2	3	R1030J
1616.677	1.6	1728921	WORD	n/a	wordpools/wordpool_EN.txt	FLEA	12	0	16	[0, 0, 0]	n/a	1	1	4600	LQ2	LQ3	500.0	50	230	300	FR2	3	R1030J
1618.296	0.0	1730540	DISTRACT_START	n/a	n/a	n/a	-999	0	16	[0, 0, 0]	n/a	1	1	4600	LQ2	LQ3	500.0	50	230	300	FR2	3	R1030J
1618.296	0.016	1730540	START	n/a	n/a	n/a	-999	0	16	[-999, -999, -999]	n/a	0	1	0	n/a	n/a	0.0	0	0	0	FR2	3	R1030J
1618.312	3.474	1730556	PROB	3.435	n/a	n/a	-999	0	16	[7, 6, 3]	16	0	1	0	n/a	n/a	0.0	0	0	0	FR2	3	R1030J
1621.786	2.453	1734030	PROB	2.424	n/a	n/a	-999	0	16	[6, 5, 9]	20	0	1	0	n/a	n/a	0.0	0	0	0	FR2	3	R1030J
1624.239	2.087	1736483	PROB	2.051	n/a	n/a	-999	0	16	[2, 1, 5]	8	0	1	0	n/a	n/a	0.0	0	0	0	FR2	3	R1030J
1626.326	3.456	1738569	PROB	3.429	n/a	n/a	-999	0	16	[2, 5, 8]	15	0	1	0	n/a	n/a	0.0	0	0	0	FR2	3	R1030J
1629.782	2.822	1742025	PROB	2.797	n/a	n/a	-999	0	16	[8, 3, 2]	13	0	1	0	n/a	n/a	0.0	0	0	0	FR2	3	R1030J
1632.604	3.289	1744847	PROB	3.255	n/a	n/a	-999	0	16	[8, 9, 5]	22	0	1	0	n/a	n/a	0.0	0	0	0	FR2	3	R1030J
1635.893	2.397	1748135	PROB	2.397	n/a	n/a	-999	0	16	[4, 5, 5]	14	0	1	0	n/a	n/a	0.0	0	0	0	FR2	3	R1030J
1638.29	0.006	1750532	STOP	n/a	n/a	n/a	-999	0	16	[-999, -999, -999]	n/a	0	1	0	n/a	n/a	0.0	0	0	0	FR2	3	R1030J
1638.296	1.221	1750538	DISTRACT_END	n/a	n/a	n/a	-999	0	16	[0, 0, 0]	n/a	0	1	0	n/a	n/a	0.0	0	0	0	FR2	3	R1030J
1639.517	2.23	1751759	REC_START	n/a	n/a	n/a	-999	0	16	[0, 0, 0]	n/a	0	1	0	n/a	n/a	0.0	0	0	0	FR2	3	R1030J
1641.747	3.279	1753989	REC_WORD	2.23	n/a	DOG	10	1	16	[0, 0, 0]	n/a	0	1	0	n/a	n/a	0.0	0	0	0	FR2	3	R1030J
1645.026	3.169	1757267	REC_WORD	5.509	n/a	BAT	8	1	16	[0, 0, 0]	n/a	0	1	0	n/a	n/a	0.0	0	0	0	FR2	3	R1030J
1648.195	21.335	1760436	REC_WORD	8.678	n/a	CLAY	7	1	16	[0, 0, 0]	n/a	0	1	0	n/a	n/a	0.0	0	0	0	FR2	3	R1030J
1669.53	1.655	1781769	REC_END	n/a	n/a	n/a	-999	0	16	[0, 0, 0]	n/a	0	1	0	n/a	n/a	0.0	0	0	0	FR2	3	R1030J
1671.185	10.0	1783424	COUNTDOWN_START	n/a	n/a	n/a	-999	0	17	[0, 0, 0]	n/a	0	1	0	n/a	n/a	0.0	0	0	0	FR2	3	R1030J
1671.185	10.428	1783424	TRIAL	n/a	n/a	n/a	-999	0	17	[0, 0, 0]	n/a	0	1	0	n/a	n/a	0.0	0	0	0	FR2	3	R1030J
1681.613	0.007	1793851	COUNTDOWN_END	n/a	n/a	n/a	-999	0	17	[0, 0, 0]	n/a	0	1	0	n/a	n/a	0.0	0	0	0	FR2	3	R1030J
1681.62	1.6	1793858	ORIENT	n/a	n/a	n/a	-999	0	17	[0, 0, 0]	n/a	0	1	0	n/a	n/a	0.0	0	0	0	FR2	3	R1030J
1684.206	1.6	1796443	WORD	n/a	wordpools/wordpool_EN.txt	TOE	1	0	17	[0, 0, 0]	n/a	0	1	0	n/a	n/a	0.0	0	0	0	FR2	3	R1030J
1686.728	1.6	1798965	WORD	n/a	wordpools/wordpool_EN.txt	DOOR	2	0	17	[0, 0, 0]	n/a	0	1	0	n/a	n/a	0.0	0	0	0	FR2	3	R1030J
1689.056	4.6	1801293	STIM_ON	n/a	n/a	n/a	-999	0	17	[0, 0, 0]	n/a	1	1	4600	LQ2	LQ3	500.0	50	230	300	FR2	3	R1030J
1689.265	1.6	1801502	WORD	n/a	wordpools/wordpool_EN.txt	FAN	3	0	17	[0, 0, 0]	n/a	1	1	4600	LQ2	LQ3	500.0	50	230	300	FR2	3	R1030J
1691.753	1.6	1803990	WORD	n/a	wordpools/wordpool_EN.txt	GATE	4	0	17	[0, 0, 0]	n/a	1	1	4600	LQ2	LQ3	500.0	50	230	300	FR2	3	R1030J
1694.374	1.6	1806610	WORD	n/a	wordpools/wordpool_EN.txt	ROAD	5	1	17	[0, 0, 0]	n/a	0	1	0	n/a	n/a	0.0	0	0	0	FR2	3	R1030J
1696.829	1.6	1809065	WORD	n/a	wordpools/wordpool_EN.txt	FLOOR	6	0	17	[0, 0, 0]	n/a	0	1	0	n/a	n/a	0.0	0	0	0	FR2	3	R1030J
1699.154	4.6	1811390	STIM_ON	n/a	n/a	n/a	-999	0	17	[0, 0, 0]	n/a	1	1	4600	LQ2	LQ3	500.0	50	230	300	FR2	3	R1030J
1699.366	1.6	1811602	WORD	n/a	wordpools/wordpool_EN.txt	HILL	7	1	17	[0, 0, 0]	n/a	1	1	4600	LQ2	LQ3	500.0	50	230	300	FR2	3	R1030J
1701.904	1.6	1814140	WORD	n/a	wordpools/wordpool_EN.txt	SHOE	8	0	17	[0, 0, 0]	n/a	1	1	4600	LQ2	LQ3	500.0	50	230	300	FR2	3	R1030J
1704.509	1.6	1816744	WORD	n/a	wordpools/wordpool_EN.txt	LAWN	9	1	17	[0, 0, 0]	n/a	0	1	0	n/a	n/a	0.0	0	0	0	FR2	3	R1030J
1707.061	1.6	1819296	WORD	n/a	wordpools/wordpool_EN.txt	PEACH	10	0	17	[0, 0, 0]	n/a	0	1	0	n/a	n/a	0.0	0	0	0	FR2	3	R1030J
1709.264	4.6	1821499	STIM_ON	n/a	n/a	n/a	-999	0	17	[0, 0, 0]	n/a	1	1	4600	LQ2	LQ3	500.0	50	230	300	FR2	3	R1030J
1709.483	1.6	1821718	WORD	n/a	wordpools/wordpool_EN.txt	OAR	11	0	17	[0, 0, 0]	n/a	1	1	4600	LQ2	LQ3	500.0	50	230	300	FR2	3	R1030J
1712.037	1.6	1824272	WORD	n/a	wordpools/wordpool_EN.txt	CHEEK	12	0	17	[0, 0, 0]	n/a	1	1	4600	LQ2	LQ3	500.0	50	230	300	FR2	3	R1030J
1713.657	0.001	1825891	DISTRACT_START	n/a	n/a	n/a	-999	0	17	[0, 0, 0]	n/a	1	1	4600	LQ2	LQ3	500.0	50	230	300	FR2	3	R1030J
1713.658	0.016	1825892	START	n/a	n/a	n/a	-999	0	17	[-999, -999, -999]	n/a	0	1	0	n/a	n/a	0.0	0	0	0	FR2	3	R1030J
1713.674	9.098	1825908	PROB	9.065	n/a	n/a	-999	0	17	[6, 7, 9]	22	0	1	0	n/a	n/a	0.0	0	0	0	FR2	3	R1030J
1722.772	3.757	1835006	PROB	3.727	n/a	n/a	-999	0	17	[2, 5, 8]	15	0	1	0	n/a	n/a	0.0	0	0	0	FR2	3	R1030J
1726.529	3.238	1838762	PROB	3.21	n/a	n/a	-999	0	17	[9, 5, 1]	15	0	1	0	n/a	n/a	0.0	0	0	0	FR2	3	R1030J
1729.767	2.287	1842000	PROB	2.259	n/a	n/a	-999	0	17	[1, 8, 2]	11	0	1	0	n/a	n/a	0.0	0	0	0	FR2	3	R1030J
1732.054	2.972	1844287	PROB	2.972	n/a	n/a	-999	0	17	[1, 3, 8]	12	0	1	0	n/a	n/a	0.0	0	0	0	FR2	3	R1030J
1735.026	0.016	1847258	STOP	n/a	n/a	n/a	-999	0	17	[-999, -999, -999]	n/a	0	1	0	n/a	n/a	0.0	0	0	0	FR2	3	R1030J
1735.042	1.153	1847274	DISTRACT_END	n/a	n/a	n/a	-999	0	17	[0, 0, 0]	n/a	0	1	0	n/a	n/a	0.0	0	0	0	FR2	3	R1030J
1736.195	2.067	1848427	REC_START	n/a	n/a	n/a	-999	0	17	[0, 0, 0]	n/a	0	1	0	n/a	n/a	0.0	0	0	0	FR2	3	R1030J
1738.262	3.164	1850494	REC_WORD	2.067	n/a	HILL	7	1	17	[0, 0, 0]	n/a	0	1	0	n/a	n/a	0.0	0	0	0	FR2	3	R1030J
1741.426	9.713	1853658	REC_WORD	5.231	n/a	LAWN	9	1	17	[0, 0, 0]	n/a	0	1	0	n/a	n/a	0.0	0	0	0	FR2	3	R1030J
1751.139	15.09	1863370	REC_WORD	14.944	n/a	ROAD	5	1	17	[0, 0, 0]	n/a	0	1	0	n/a	n/a	0.0	0	0	0	FR2	3	R1030J
1766.229	1.985	1878458	REC_END	n/a	n/a	n/a	-999	0	17	[0, 0, 0]	n/a	0	1	0	n/a	n/a	0.0	0	0	0	FR2	3	R1030J
1768.214	10.0	1880443	COUNTDOWN_START	n/a	n/a	n/a	-999	0	18	[0, 0, 0]	n/a	0	0	0	n/a	n/a	0.0	0	0	0	FR2	3	R1030J
1768.215	10.427	1880444	TRIAL	n/a	n/a	n/a	-999	0	18	[0, 0, 0]	n/a	0	0	0	n/a	n/a	0.0	0	0	0	FR2	3	R1030J
1778.642	0.008	1890870	COUNTDOWN_END	n/a	n/a	n/a	-999	0	18	[0, 0, 0]	n/a	0	0	0	n/a	n/a	0.0	0	0	0	FR2	3	R1030J
1778.65	1.6	1890878	ORIENT	n/a	n/a	n/a	-999	0	18	[0, 0, 0]	n/a	0	0	0	n/a	n/a	0.0	0	0	0	FR2	3	R1030J
1781.036	1.6	1893264	WORD	n/a	wordpools/wordpool_EN.txt	FRUIT	1	0	18	[0, 0, 0]	n/a	0	0	0	n/a	n/a	0.0	0	0	0	FR2	3	R1030J
1783.474	1.6	1895701	WORD	n/a	wordpools/wordpool_EN.txt	JAR	2	0	18	[0, 0, 0]	n/a	0	0	0	n/a	n/a	0.0	0	0	0	FR2	3	R1030J
1785.862	1.6	1898089	WORD	n/a	wordpools/wordpool_EN.txt	SEED	3	0	18	[0, 0, 0]	n/a	0	0	0	n/a	n/a	0.0	0	0	0	FR2	3	R1030J
1788.433	1.6	1900660	WORD	n/a	wordpools/wordpool_EN.txt	RAKE	4	0	18	[0, 0, 0]	n/a	0	0	0	n/a	n/a	0.0	0	0	0	FR2	3	R1030J
1790.853	1.6	1903080	WORD	n/a	wordpools/wordpool_EN.txt	MOTH	5	0	18	[0, 0, 0]	n/a	0	0	0	n/a	n/a	0.0	0	0	0	FR2	3	R1030J
1793.374	1.6	1905600	WORD	n/a	wordpools/wordpool_EN.txt	PEAR	6	0	18	[0, 0, 0]	n/a	0	0	0	n/a	n/a	0.0	0	0	0	FR2	3	R1030J
1795.961	1.6	1908187	WORD	n/a	wordpools/wordpool_EN.txt	COW	7	1	18	[0, 0, 0]	n/a	0	0	0	n/a	n/a	0.0	0	0	0	FR2	3	R1030J
1798.416	1.6	1910642	WORD	n/a	wordpools/wordpool_EN.txt	SNAKE	8	0	18	[0, 0, 0]	n/a	0	0	0	n/a	n/a	0.0	0	0	0	FR2	3	R1030J
1800.97	1.6	1913196	WORD	n/a	wordpools/wordpool_EN.txt	TREE	9	0	18	[0, 0, 0]	n/a	0	0	0	n/a	n/a	0.0	0	0	0	FR2	3	R1030J
1803.608	1.6	1915833	WORD	n/a	wordpools/wordpool_EN.txt	GOAT	10	1	18	[0, 0, 0]	n/a	0	0	0	n/a	n/a	0.0	0	0	0	FR2	3	R1030J
1806.128	1.6	1918353	WORD	n/a	wordpools/wordpool_EN.txt	FARM	11	1	18	[0, 0, 0]	n/a	0	0	0	n/a	n/a	0.0	0	0	0	FR2	3	R1030J
1808.6	1.6	1920825	WORD	n/a	wordpools/wordpool_EN.txt	ARK	12	0	18	[0, 0, 0]	n/a	0	0	0	n/a	n/a	0.0	0	0	0	FR2	3	R1030J
1810.218	0.001	1922443	DISTRACT_START	n/a	n/a	n/a	-999	0	18	[0, 0, 0]	n/a	0	0	0	n/a	n/a	0.0	0	0	0	FR2	3	R1030J
1810.219	0.016	1922444	START	n/a	n/a	n/a	-999	0	18	[-999, -999, -999]	n/a	0	0	0	n/a	n/a	0.0	0	0	0	FR2	3	R1030J
1810.235	2.171	1922460	PROB	2.152	n/a	n/a	-999	0	18	[1, 3, 2]	6	0	0	0	n/a	n/a	0.0	0	0	0	FR2	3	R1030J
1812.406	2.371	1924631	PROB	2.333	n/a	n/a	-999	0	18	[4, 6, 3]	13	0	0	0	n/a	n/a	0.0	0	0	0	FR2	3	R1030J
1814.777	3.355	1927001	PROB	3.321	n/a	n/a	-999	0	18	[9, 2, 4]	15	0	0	0	n/a	n/a	0.0	0	0	0	FR2	3	R1030J
1818.132	3.29	1930356	PROB	3.255	n/a	n/a	-999	0	18	[4, 1, 7]	12	0	0	0	n/a	n/a	0.0	0	0	0	FR2	3	R1030J
1821.422	2.287	1933646	PROB	2.261	n/a	n/a	-999	0	18	[2, 5, 1]	8	0	0	0	n/a	n/a	0.0	0	0	0	FR2	3	R1030J
1823.709	2.253	1935932	PROB	2.222	n/a	n/a	-999	0	18	[1, 6, 2]	9	0	0	0	n/a	n/a	0.0	0	0	0	FR2	3	R1030J
1825.962	4.257	1938185	PROB	4.232	n/a	n/a	-999	0	18	[4, 9, 2]	15	0	0	0	n/a	n/a	0.0	0	0	0	FR2	3	R1030J
1830.219	2.831	1942442	PROB	2.831	n/a	n/a	-999	0	18	[2, 4, 5]	11	0	0	0	n/a	n/a	0.0	0	0	0	FR2	3	R1030J
1833.05	0.007	1945272	STOP	n/a	n/a	n/a	-999	0	18	[-999, -999, -999]	n/a	0	0	0	n/a	n/a	0.0	0	0	0	FR2	3	R1030J
1833.057	1.035	1945279	DISTRACT_END	n/a	n/a	n/a	-999	0	18	[0, 0, 0]	n/a	0	0	0	n/a	n/a	0.0	0	0	0	FR2	3	R1030J
1834.092	11.61	1946314	REC_START	n/a	n/a	n/a	-999	0	18	[0, 0, 0]	n/a	0	0	0	n/a	n/a	0.0	0	0	0	FR2	3	R1030J
1845.702	2.145	1957923	REC_WORD	11.61	n/a	FARM	11	1	18	[0, 0, 0]	n/a	0	0	0	n/a	n/a	0.0	0	0	0	FR2	3	R1030J
1847.847	1.349	1960068	REC_WORD	13.755	n/a	COW	7	1	18	[0, 0, 0]	n/a	0	0	0	n/a	n/a	0.0	0	0	0	FR2	3	R1030J
1849.196	14.916	1961417	REC_WORD	15.104	n/a	GOAT	10	1	18	[0, 0, 0]	n/a	0	0	0	n/a	n/a	0.0	0	0	0	FR2	3	R1030J
1864.112	2.636	1976331	REC_END	n/a	n/a	n/a	-999	0	18	[0, 0, 0]	n/a	0	0	0	n/a	n/a	0.0	0	0	0	FR2	3	R1030J
1866.748	0.0	1978967	TRIAL	n/a	n/a	n/a	-999	0	19	[0, 0, 0]	n/a	0	1	0	n/a	n/a	0.0	0	0	0	FR2	3	R1030J
1866.748	10.0	1978967	COUNTDOWN_START	n/a	n/a	n/a	-999	0	19	[0, 0, 0]	n/a	0	1	0	n/a	n/a	0.0	0	0	0	FR2	3	R1030J
1877.176	0.005	1989394	COUNTDOWN_END	n/a	n/a	n/a	-999	0	19	[0, 0, 0]	n/a	0	1	0	n/a	n/a	0.0	0	0	0	FR2	3	R1030J
1877.181	1.6	1989399	ORIENT	n/a	n/a	n/a	-999	0	19	[0, 0, 0]	n/a	0	1	0	n/a	n/a	0.0	0	0	0	FR2	3	R1030J
1879.579	4.6	1991797	STIM_ON	n/a	n/a	n/a	-999	0	19	[0, 0, 0]	n/a	1	1	4600	LQ2	LQ3	500.0	50	230	300	FR2	3	R1030J
1879.787	1.6	1992005	WORD	n/a	wordpools/wordpool_EN.txt	PIT	1	0	19	[0, 0, 0]	n/a	1	1	4600	LQ2	LQ3	500.0	50	230	300	FR2	3	R1030J
1882.206	1.6	1994423	WORD	n/a	wordpools/wordpool_EN.txt	LIP	2	0	19	[0, 0, 0]	n/a	1	1	4600	LQ2	LQ3	500.0	50	230	300	FR2	3	R1030J
1884.695	1.6	1996912	WORD	n/a	wordpools/wordpool_EN.txt	PLANE	3	0	19	[0, 0, 0]	n/a	0	1	0	n/a	n/a	0.0	0	0	0	FR2	3	R1030J
1887.248	1.6	1999465	WORD	n/a	wordpools/wordpool_EN.txt	RAIN	4	0	19	[0, 0, 0]	n/a	0	1	0	n/a	n/a	0.0	0	0	0	FR2	3	R1030J
1889.484	4.6	2001701	STIM_ON	n/a	n/a	n/a	-999	0	19	[0, 0, 0]	n/a	1	1	4600	LQ2	LQ3	500.0	50	230	300	FR2	3	R1030J
1889.703	1.6	2001920	WORD	n/a	wordpools/wordpool_EN.txt	FILM	5	0	19	[0, 0, 0]	n/a	1	1	4600	LQ2	LQ3	500.0	50	230	300	FR2	3	R1030J
1892.123	1.6	2004339	WORD	n/a	wordpools/wordpool_EN.txt	BLOOM	6	0	19	[0, 0, 0]	n/a	1	1	4600	LQ2	LQ3	500.0	50	230	300	FR2	3	R1030J
1894.578	1.6	2006794	WORD	n/a	wordpools/wordpool_EN.txt	BEAN	7	1	19	[0, 0, 0]	n/a	0	1	0	n/a	n/a	0.0	0	0	0	FR2	3	R1030J
1897.131	1.6	2009347	WORD	n/a	wordpools/wordpool_EN.txt	APE	8	0	19	[0, 0, 0]	n/a	0	1	0	n/a	n/a	0.0	0	0	0	FR2	3	R1030J
1899.526	4.6	2011742	STIM_ON	n/a	n/a	n/a	-999	0	19	[0, 0, 0]	n/a	1	1	4600	LQ2	LQ3	500.0	50	230	300	FR2	3	R1030J
1899.737	1.6	2011953	WORD	n/a	wordpools/wordpool_EN.txt	JET	9	0	19	[0, 0, 0]	n/a	1	1	4600	LQ2	LQ3	500.0	50	230	300	FR2	3	R1030J
1902.14	1.6	2014355	WORD	n/a	wordpools/wordpool_EN.txt	SPONGE	10	0	19	[0, 0, 0]	n/a	1	1	4600	LQ2	LQ3	500.0	50	230	300	FR2	3	R1030J
1904.728	1.6	2016943	WORD	n/a	wordpools/wordpool_EN.txt	WING	11	0	19	[0, 0, 0]	n/a	0	1	0	n/a	n/a	0.0	0	0	0	FR2	3	R1030J
1907.132	1.6	2019347	WORD	n/a	wordpools/wordpool_EN.txt	STAIR	12	0	19	[0, 0, 0]	n/a	0	1	0	n/a	n/a	0.0	0	0	0	FR2	3	R1030J
1908.752	0.001	2020967	DISTRACT_START	n/a	n/a	n/a	-999	0	19	[0, 0, 0]	n/a	0	1	0	n/a	n/a	0.0	0	0	0	FR2	3	R1030J
1908.753	0.016	2020968	START	n/a	n/a	n/a	-999	0	19	[-999, -999, -999]	n/a	0	1	0	n/a	n/a	0.0	0	0	0	FR2	3	R1030J
1908.769	3.204	2020984	PROB	3.17	n/a	n/a	-999	0	19	[3, 4, 7]	14	0	1	0	n/a	n/a	0.0	0	0	0	FR2	3	R1030J
1911.973	1.937	2024187	PROB	1.902	n/a	n/a	-999	0	19	[4, 2, 2]	8	0	1	0	n/a	n/a	0.0	0	0	0	FR2	3	R1030J
1913.91	2.622	2026124	PROB	2.589	n/a	n/a	-999	0	19	[8, 1, 3]	12	0	1	0	n/a	n/a	0.0	0	0	0	FR2	3	R1030J
1916.532	3.205	2028746	PROB	3.167	n/a	n/a	-999	0	19	[8, 2, 7]	17	0	1	0	n/a	n/a	0.0	0	0	0	FR2	3	R1030J
1919.737	2.503	2031951	PROB	2.473	n/a	n/a	-999	0	19	[2, 4, 6]	12	0	1	0	n/a	n/a	0.0	0	0	0	FR2	3	R1030J
1922.24	3.223	2034453	PROB	3.187	n/a	n/a	-999	0	19	[3, 8, 4]	15	0	1	0	n/a	n/a	0.0	0	0	0	FR2	3	R1030J
1925.463	1.802	2037676	PROB	1.771	n/a	n/a	-999	0	19	[5, 1, 1]	7	0	1	0	n/a	n/a	0.0	0	0	0	FR2	3	R1030J
1927.265	3.154	2039478	PROB	3.154	n/a	n/a	-999	0	19	[8, 6, 9]	23	0	1	0	n/a	n/a	0.0	0	0	0	FR2	3	R1030J
1930.419	0.019	2042632	STOP	n/a	n/a	n/a	-999	0	19	[-999, -999, -999]	n/a	0	1	0	n/a	n/a	0.0	0	0	0	FR2	3	R1030J
1930.438	1.186	2042651	DISTRACT_END	n/a	n/a	n/a	-999	0	19	[0, 0, 0]	n/a	0	1	0	n/a	n/a	0.0	0	0	0	FR2	3	R1030J
1931.624	9.867	2043837	REC_START	n/a	n/a	n/a	-999	0	19	[0, 0, 0]	n/a	0	1	0	n/a	n/a	0.0	0	0	0	FR2	3	R1030J
1941.491	10.117	2053703	REC_WORD	9.867	n/a	BEAN	7	1	19	[0, 0, 0]	n/a	0	1	0	n/a	n/a	0.0	0	0	0	FR2	3	R1030J
1951.608	3.418	2063818	REC_WORD	19.984	n/a	STRING	-999	0	19	[0, 0, 0]	n/a	0	1	0	n/a	n/a	0.0	0	0	0	FR2	3	R1030J
1955.026	6.619	2067236	REC_WORD	23.402	n/a	THREAD	-999	0	19	[0, 0, 0]	n/a	0	1	0	n/a	n/a	0.0	0	0	0	FR2	3	R1030J
1961.645	1.866	2073854	REC_END	n/a	n/a	n/a	-999	0	19	[0, 0, 0]	n/a	0	1	0	n/a	n/a	0.0	0	0	0	FR2	3	R1030J
1963.511	0.0	2075720	TRIAL	n/a	n/a	n/a	-999	0	20	[0, 0, 0]	n/a	0	1	0	n/a	n/a	0.0	0	0	0	FR2	3	R1030J
1963.511	10.0	2075720	COUNTDOWN_START	n/a	n/a	n/a	-999	0	20	[0, 0, 0]	n/a	0	1	0	n/a	n/a	0.0	0	0	0	FR2	3	R1030J
1973.939	0.006	2086147	COUNTDOWN_END	n/a	n/a	n/a	-999	0	20	[0, 0, 0]	n/a	0	1	0	n/a	n/a	0.0	0	0	0	FR2	3	R1030J
1973.945	1.6	2086153	ORIENT	n/a	n/a	n/a	-999	0	20	[0, 0, 0]	n/a	0	1	0	n/a	n/a	0.0	0	0	0	FR2	3	R1030J
1976.238	4.6	2088446	STIM_ON	n/a	n/a	n/a	-999	0	20	[0, 0, 0]	n/a	1	1	4600	LQ2	LQ3	500.0	50	230	300	FR2	3	R1030J
1976.449	1.6	2088657	WORD	n/a	wordpools/wordpool_EN.txt	DEER	1	0	20	[0, 0, 0]	n/a	1	1	4600	LQ2	LQ3	500.0	50	230	300	FR2	3	R1030J
1978.903	1.6	2091111	WORD	n/a	wordpools/wordpool_EN.txt	LAMB	2	0	20	[0, 0, 0]	n/a	1	1	4600	LQ2	LQ3	500.0	50	230	300	FR2	3	R1030J
1981.458	1.6	2093665	WORD	n/a	wordpools/wordpool_EN.txt	MAT	3	1	20	[0, 0, 0]	n/a	0	1	0	n/a	n/a	0.0	0	0	0	FR2	3	R1030J
1984.061	1.6	2096268	WORD	n/a	wordpools/wordpool_EN.txt	YARD	4	1	20	[0, 0, 0]	n/a	0	1	0	n/a	n/a	0.0	0	0	0	FR2	3	R1030J
1986.378	4.6	2098585	STIM_ON	n/a	n/a	n/a	-999	0	20	[0, 0, 0]	n/a	1	1	4600	LQ2	LQ3	500.0	50	230	300	FR2	3	R1030J
1986.583	1.6	2098790	WORD	n/a	wordpools/wordpool_EN.txt	BOOT	5	1	20	[0, 0, 0]	n/a	1	1	4600	LQ2	LQ3	500.0	50	230	300	FR2	3	R1030J
1988.969	1.6	2101176	WORD	n/a	wordpools/wordpool_EN.txt	AXE	6	0	20	[0, 0, 0]	n/a	1	1	4600	LQ2	LQ3	500.0	50	230	300	FR2	3	R1030J
1991.441	1.6	2103647	WORD	n/a	wordpools/wordpool_EN.txt	BOX	7	0	20	[0, 0, 0]	n/a	0	1	0	n/a	n/a	0.0	0	0	0	FR2	3	R1030J
1994.061	1.6	2106267	WORD	n/a	wordpools/wordpool_EN.txt	TAIL	8	0	20	[0, 0, 0]	n/a	0	1	0	n/a	n/a	0.0	0	0	0	FR2	3	R1030J
1996.264	4.6	2108470	STIM_ON	n/a	n/a	n/a	-999	0	20	[0, 0, 0]	n/a	1	1	4600	LQ2	LQ3	500.0	50	230	300	FR2	3	R1030J
1996.483	1.6	2108689	WORD	n/a	wordpools/wordpool_EN.txt	CAGE	9	0	20	[0, 0, 0]	n/a	1	1	4600	LQ2	LQ3	500.0	50	230	300	FR2	3	R1030J
1999.036	1.6	2111242	WORD	n/a	wordpools/wordpool_EN.txt	POOL	10	0	20	[0, 0, 0]	n/a	1	1	4600	LQ2	LQ3	500.0	50	230	300	FR2	3	R1030J
2001.408	1.6	2113613	WORD	n/a	wordpools/wordpool_EN.txt	JEEP	11	0	20	[0, 0, 0]	n/a	0	1	0	n/a	n/a	0.0	0	0	0	FR2	3	R1030J
2003.862	1.6	2116067	WORD	n/a	wordpools/wordpool_EN.txt	FUDGE	12	1	20	[0, 0, 0]	n/a	0	1	0	n/a	n/a	0.0	0	0	0	FR2	3	R1030J
2005.481	0.001	2117686	DISTRACT_START	n/a	n/a	n/a	-999	0	20	[0, 0, 0]	n/a	0	1	0	n/a	n/a	0.0	0	0	0	FR2	3	R1030J
2005.482	0.016	2117687	START	n/a	n/a	n/a	-999	0	20	[-999, -999, -999]	n/a	0	1	0	n/a	n/a	0.0	0	0	0	FR2	3	R1030J
2005.498	3.022	2117703	PROB	2.985	n/a	n/a	-999	0	20	[7, 6, 7]	20	0	1	0	n/a	n/a	0.0	0	0	0	FR2	3	R1030J
2008.52	3.155	2120725	PROB	3.131	n/a	n/a	-999	0	20	[4, 1, 6]	11	0	1	0	n/a	n/a	0.0	0	0	0	FR2	3	R1030J
2011.675	3.388	2123879	PROB	3.351	n/a	n/a	-999	0	20	[2, 6, 8]	16	0	1	0	n/a	n/a	0.0	0	0	0	FR2	3	R1030J
2015.063	2.922	2127267	PROB	2.899	n/a	n/a	-999	0	20	[5, 7, 5]	17	0	1	0	n/a	n/a	0.0	0	0	0	FR2	3	R1030J
2017.985	2.805	2130189	PROB	2.77	n/a	n/a	-999	0	20	[3, 4, 3]	10	0	1	0	n/a	n/a	0.0	0	0	0	FR2	3	R1030J
2020.79	3.489	2132994	PROB	3.46	n/a	n/a	-999	0	20	[8, 5, 9]	22	0	1	0	n/a	n/a	0.0	0	0	0	FR2	3	R1030J
2024.279	3.092	2136482	PROB	3.092	n/a	n/a	-999	0	20	[5, 9, 8]	22	0	1	0	n/a	n/a	0.0	0	0	0	FR2	3	R1030J
2027.371	0.014	2139574	STOP	n/a	n/a	n/a	-999	0	20	[-999, -999, -999]	n/a	0	1	0	n/a	n/a	0.0	0	0	0	FR2	3	R1030J
2027.385	1.169	2139588	DISTRACT_END	n/a	n/a	n/a	-999	0	20	[0, 0, 0]	n/a	0	1	0	n/a	n/a	0.0	0	0	0	FR2	3	R1030J
2028.554	2.855	2140757	REC_START	n/a	n/a	n/a	-999	0	20	[0, 0, 0]	n/a	0	1	0	n/a	n/a	0.0	0	0	0	FR2	3	R1030J
2031.409	1.195	2143611	REC_WORD	2.855	n/a	YARD	4	1	20	[0, 0, 0]	n/a	0	1	0	n/a	n/a	0.0	0	0	0	FR2	3	R1030J
2032.604	3.361	2144806	REC_WORD	4.05	n/a	MAT	3	1	20	[0, 0, 0]	n/a	0	1	0	n/a	n/a	0.0	0	0	0	FR2	3	R1030J
2035.965	8.951	2148167	REC_WORD	7.411	n/a	BOOT	5	1	20	[0, 0, 0]	n/a	0	1	0	n/a	n/a	0.0	0	0	0	FR2	3	R1030J
2044.916	13.653	2157117	REC_WORD	16.362	n/a	FUDGE	12	1	20	[0, 0, 0]	n/a	0	1	0	n/a	n/a	0.0	0	0	0	FR2	3	R1030J
2058.569	2.156	2170769	REC_END	n/a	n/a	n/a	-999	0	20	[0, 0, 0]	n/a	0	1	0	n/a	n/a	0.0	0	0	0	FR2	3	R1030J
2060.725	0.0	2172924	TRIAL	n/a	n/a	n/a	-999	0	21	[0, 0, 0]	n/a	0	1	0	n/a	n/a	0.0	0	0	0	FR2	3	R1030J
2060.725	10.0	2172924	COUNTDOWN_START	n/a	n/a	n/a	-999	0	21	[0, 0, 0]	n/a	0	1	0	n/a	n/a	0.0	0	0	0	FR2	3	R1030J
2071.153	0.021	2183351	COUNTDOWN_END	n/a	n/a	n/a	-999	0	21	[0, 0, 0]	n/a	0	1	0	n/a	n/a	0.0	0	0	0	FR2	3	R1030J
2071.174	1.6	2183372	ORIENT	n/a	n/a	n/a	-999	0	21	[0, 0, 0]	n/a	0	1	0	n/a	n/a	0.0	0	0	0	FR2	3	R1030J
2073.505	4.6	2185703	STIM_ON	n/a	n/a	n/a	-999	0	21	[0, 0, 0]	n/a	1	1	4600	LQ2	LQ3	500.0	50	230	300	FR2	3	R1030J
2073.729	1.6	2185927	WORD	n/a	wordpools/wordpool_EN.txt	EGG	1	0	21	[0, 0, 0]	n/a	1	1	4600	LQ2	LQ3	500.0	50	230	300	FR2	3	R1030J
2076.35	1.6	2188548	WORD	n/a	wordpools/wordpool_EN.txt	HAWK	2	0	21	[0, 0, 0]	n/a	1	1	4600	LQ2	LQ3	500.0	50	230	300	FR2	3	R1030J
2078.788	1.6	2190986	WORD	n/a	wordpools/wordpool_EN.txt	FOOD	3	0	21	[0, 0, 0]	n/a	0	1	0	n/a	n/a	0.0	0	0	0	FR2	3	R1030J
2081.308	1.6	2193505	WORD	n/a	wordpools/wordpool_EN.txt	FROG	4	1	21	[0, 0, 0]	n/a	0	1	0	n/a	n/a	0.0	0	0	0	FR2	3	R1030J
2083.662	4.6	2195859	STIM_ON	n/a	n/a	n/a	-999	0	21	[0, 0, 0]	n/a	1	1	4600	LQ2	LQ3	500.0	50	230	300	FR2	3	R1030J
2083.88	1.6	2196077	WORD	n/a	wordpools/wordpool_EN.txt	BIRD	5	0	21	[0, 0, 0]	n/a	1	1	4600	LQ2	LQ3	500.0	50	230	300	FR2	3	R1030J
2086.367	1.6	2198564	WORD	n/a	wordpools/wordpool_EN.txt	BRANCH	6	0	21	[0, 0, 0]	n/a	1	1	4600	LQ2	LQ3	500.0	50	230	300	FR2	3	R1030J
2088.922	1.6	2201119	WORD	n/a	wordpools/wordpool_EN.txt	PIPE	7	0	21	[0, 0, 0]	n/a	0	1	0	n/a	n/a	0.0	0	0	0	FR2	3	R1030J
2091.526	1.6	2203722	WORD	n/a	wordpools/wordpool_EN.txt	SHELL	8	0	21	[0, 0, 0]	n/a	0	1	0	n/a	n/a	0.0	0	0	0	FR2	3	R1030J
2093.795	4.6	2205991	STIM_ON	n/a	n/a	n/a	-999	0	21	[0, 0, 0]	n/a	1	1	4600	LQ2	LQ3	500.0	50	230	300	FR2	3	R1030J
2094.013	1.6	2206209	WORD	n/a	wordpools/wordpool_EN.txt	FOX	9	1	21	[0, 0, 0]	n/a	1	1	4600	LQ2	LQ3	500.0	50	230	300	FR2	3	R1030J
2096.618	1.6	2208814	WORD	n/a	wordpools/wordpool_EN.txt	SEAL	10	0	21	[0, 0, 0]	n/a	1	1	4600	LQ2	LQ3	500.0	50	230	300	FR2	3	R1030J
2099.221	1.6	2211417	WORD	n/a	wordpools/wordpool_EN.txt	PET	11	1	21	[0, 0, 0]	n/a	0	1	0	n/a	n/a	0.0	0	0	0	FR2	3	R1030J
2101.81	1.6	2214005	WORD	n/a	wordpools/wordpool_EN.txt	NEST	12	0	21	[0, 0, 0]	n/a	0	1	0	n/a	n/a	0.0	0	0	0	FR2	3	R1030J
2103.429	0.001	2215624	DISTRACT_START	n/a	n/a	n/a	-999	0	21	[0, 0, 0]	n/a	0	1	0	n/a	n/a	0.0	0	0	0	FR2	3	R1030J
2103.43	0.016	2215625	START	n/a	n/a	n/a	-999	0	21	[-999, -999, -999]	n/a	0	1	0	n/a	n/a	0.0	0	0	0	FR2	3	R1030J
2103.446	3.406	2215641	PROB	3.373	n/a	n/a	-999	0	21	[6, 1, 3]	10	0	1	0	n/a	n/a	0.0	0	0	0	FR2	3	R1030J
2106.852	2.169	2219047	PROB	2.142	n/a	n/a	-999	0	21	[2, 2, 6]	10	0	1	0	n/a	n/a	0.0	0	0	0	FR2	3	R1030J
2109.021	3.874	2221216	PROB	3.838	n/a	n/a	-999	0	21	[8, 6, 7]	21	0	1	0	n/a	n/a	0.0	0	0	0	FR2	3	R1030J
2112.895	2.555	2225089	PROB	2.532	n/a	n/a	-999	0	21	[6, 6, 5]	17	0	1	0	n/a	n/a	0.0	0	0	0	FR2	3	R1030J
2115.45	2.137	2227644	PROB	2.105	n/a	n/a	-999	0	21	[2, 9, 1]	12	0	1	0	n/a	n/a	0.0	0	0	0	FR2	3	R1030J
2117.587	2.337	2229781	PROB	2.312	n/a	n/a	-999	0	21	[9, 9, 3]	21	0	1	0	n/a	n/a	0.0	0	0	0	FR2	3	R1030J
2119.924	3.104	2232118	PROB	3.078	n/a	n/a	-999	0	21	[7, 2, 8]	17	0	1	0	n/a	n/a	0.0	0	0	0	FR2	3	R1030J
2123.028	2.815	2235221	PROB	2.815	n/a	n/a	-999	0	21	[2, 3, 9]	14	0	1	0	n/a	n/a	0.0	0	0	0	FR2	3	R1030J
2125.843	0.008	2238036	STOP	n/a	n/a	n/a	-999	0	21	[-999, -999, -999]	n/a	0	1	0	n/a	n/a	0.0	0	0	0	FR2	3	R1030J
2125.851	1.184	2238044	DISTRACT_END	n/a	n/a	n/a	-999	0	21	[0, 0, 0]	n/a	0	1	0	n/a	n/a	0.0	0	0	0	FR2	3	R1030J
2127.035	4.143	2239228	REC_START	n/a	n/a	n/a	-999	0	21	[0, 0, 0]	n/a	0	1	0	n/a	n/a	0.0	0	0	0	FR2	3	R1030J
2131.178	1.365	2243370	REC_WORD	4.143	n/a	FROG	4	1	21	[0, 0, 0]	n/a	0	1	0	n/a	n/a	0.0	0	0	0	FR2	3	R1030J
2132.543	1.388	2244735	REC_WORD	5.508	n/a	PET	11	1	21	[0, 0, 0]	n/a	0	1	0	n/a	n/a	0.0	0	0	0	FR2	3	R1030J
2133.931	16.426	2246123	REC_WORD	6.896	n/a	FOX	9	1	21	[0, 0, 0]	n/a	0	1	0	n/a	n/a	0.0	0	0	0	FR2	3	R1030J
2150.357	6.698	2262547	REC_WORD	23.322	n/a	BADGE	-999	0	21	[0, 0, 0]	n/a	0	1	0	n/a	n/a	0.0	0	0	0	FR2	3	R1030J
2157.055	2.369	2269245	REC_END	n/a	n/a	n/a	-999	0	21	[0, 0, 0]	n/a	0	1	0	n/a	n/a	0.0	0	0	0	FR2	3	R1030J
2159.424	0.0	2271614	TRIAL	n/a	n/a	n/a	-999	0	22	[0, 0, 0]	n/a	0	1	0	n/a	n/a	0.0	0	0	0	FR2	3	R1030J
2159.424	10.0	2271614	COUNTDOWN_START	n/a	n/a	n/a	-999	0	22	[0, 0, 0]	n/a	0	1	0	n/a	n/a	0.0	0	0	0	FR2	3	R1030J
2169.852	0.006	2282040	COUNTDOWN_END	n/a	n/a	n/a	-999	0	22	[0, 0, 0]	n/a	0	1	0	n/a	n/a	0.0	0	0	0	FR2	3	R1030J
2169.858	1.6	2282046	ORIENT	n/a	n/a	n/a	-999	0	22	[0, 0, 0]	n/a	0	1	0	n/a	n/a	0.0	0	0	0	FR2	3	R1030J
2172.344	1.6	2284532	WORD	n/a	wordpools/wordpool_EN.txt	VINE	1	0	22	[0, 0, 0]	n/a	0	1	0	n/a	n/a	0.0	0	0	0	FR2	3	R1030J
2174.716	1.6	2286904	WORD	n/a	wordpools/wordpool_EN.txt	DRUM	2	0	22	[0, 0, 0]	n/a	0	1	0	n/a	n/a	0.0	0	0	0	FR2	3	R1030J
2177.087	4.6	2289275	STIM_ON	n/a	n/a	n/a	-999	0	22	[0, 0, 0]	n/a	1	1	4600	LQ2	LQ3	500.0	50	230	300	FR2	3	R1030J
2177.303	1.6	2289491	WORD	n/a	wordpools/wordpool_EN.txt	PALM	3	0	22	[0, 0, 0]	n/a	1	1	4600	LQ2	LQ3	500.0	50	230	300	FR2	3	R1030J
2179.741	1.6	2291928	WORD	n/a	wordpools/wordpool_EN.txt	SEAT	4	0	22	[0, 0, 0]	n/a	1	1	4600	LQ2	LQ3	500.0	50	230	300	FR2	3	R1030J
2182.362	1.6	2294549	WORD	n/a	wordpools/wordpool_EN.txt	MUG	5	0	22	[0, 0, 0]	n/a	0	1	0	n/a	n/a	0.0	0	0	0	FR2	3	R1030J
2184.85	1.6	2297037	WORD	n/a	wordpools/wordpool_EN.txt	STRAW	6	0	22	[0, 0, 0]	n/a	0	1	0	n/a	n/a	0.0	0	0	0	FR2	3	R1030J
2187.106	4.6	2299293	STIM_ON	n/a	n/a	n/a	-999	0	22	[0, 0, 0]	n/a	1	1	4600	LQ2	LQ3	500.0	50	230	300	FR2	3	R1030J
2187.32	1.6	2299507	WORD	n/a	wordpools/wordpool_EN.txt	GLASS	7	0	22	[0, 0, 0]	n/a	1	1	4600	LQ2	LQ3	500.0	50	230	300	FR2	3	R1030J
2189.725	1.6	2301911	WORD	n/a	wordpools/wordpool_EN.txt	ROSE	8	0	22	[0, 0, 0]	n/a	1	1	4600	LQ2	LQ3	500.0	50	230	300	FR2	3	R1030J
2192.211	1.6	2304397	WORD	n/a	wordpools/wordpool_EN.txt	BAND	9	0	22	[0, 0, 0]	n/a	0	1	0	n/a	n/a	0.0	0	0	0	FR2	3	R1030J
2194.8	1.6	2306986	WORD	n/a	wordpools/wordpool_EN.txt	HAND	10	0	22	[0, 0, 0]	n/a	0	1	0	n/a	n/a	0.0	0	0	0	FR2	3	R1030J
2197.166	4.6	2309352	STIM_ON	n/a	n/a	n/a	-999	0	22	[0, 0, 0]	n/a	1	1	4600	LQ2	LQ3	500.0	50	230	300	FR2	3	R1030J
2197.371	1.6	2309557	WORD	n/a	wordpools/wordpool_EN.txt	CUBE	11	1	22	[0, 0, 0]	n/a	1	1	4600	LQ2	LQ3	500.0	50	230	300	FR2	3	R1030J
2199.974	1.6	2312159	WORD	n/a	wordpools/wordpool_EN.txt	TRAY	12	0	22	[0, 0, 0]	n/a	1	1	4600	LQ2	LQ3	500.0	50	230	300	FR2	3	R1030J
2201.578	0.001	2313763	DISTRACT_START	n/a	n/a	n/a	-999	0	22	[0, 0, 0]	n/a	1	1	4600	LQ2	LQ3	500.0	50	230	300	FR2	3	R1030J
2201.579	0.016	2313764	START	n/a	n/a	n/a	-999	0	22	[-999, -999, -999]	n/a	0	1	0	n/a	n/a	0.0	0	0	0	FR2	3	R1030J
2201.595	5.008	2313780	PROB	4.984	n/a	n/a	-999	0	22	[8, 7, 4]	19	0	1	0	n/a	n/a	0.0	0	0	0	FR2	3	R1030J
2206.603	3.339	2318788	PROB	3.312	n/a	n/a	-999	0	22	[6, 2, 5]	13	0	1	0	n/a	n/a	0.0	0	0	0	FR2	3	R1030J
2209.942	4.106	2322126	PROB	4.068	n/a	n/a	-999	0	22	[2, 8, 5]	15	0	1	0	n/a	n/a	0.0	0	0	0	FR2	3	R1030J
2214.048	2.872	2326232	PROB	2.843	n/a	n/a	-999	0	22	[2, 1, 3]	6	0	1	0	n/a	n/a	0.0	0	0	0	FR2	3	R1030J
2216.92	2.505	2329104	PROB	2.475	n/a	n/a	-999	0	22	[1, 6, 7]	14	0	1	0	n/a	n/a	0.0	0	0	0	FR2	3	R1030J
2219.425	3.314	2331608	PROB	3.314	n/a	n/a	-999	0	22	[4, 7, 1]	12	0	1	0	n/a	n/a	0.0	0	0	0	FR2	3	R1030J
2222.739	0.008	2334922	STOP	n/a	n/a	n/a	-999	0	22	[-999, -999, -999]	n/a	0	1	0	n/a	n/a	0.0	0	0	0	FR2	3	R1030J
2222.747	1.069	2334930	DISTRACT_END	n/a	n/a	n/a	-999	0	22	[0, 0, 0]	n/a	0	1	0	n/a	n/a	0.0	0	0	0	FR2	3	R1030J
2223.816	6.125	2335999	REC_START	n/a	n/a	n/a	-999	0	22	[0, 0, 0]	n/a	0	1	0	n/a	n/a	0.0	0	0	0	FR2	3	R1030J
2229.941	0.776	2342123	REC_WORD	6.125	n/a	ATTIC	-999	0	22	[0, 0, 0]	n/a	0	1	0	n/a	n/a	0.0	0	0	0	FR2	3	R1030J
2230.717	15.618	2342899	REC_WORD	6.901	n/a	CUBE	11	1	22	[0, 0, 0]	n/a	0	1	0	n/a	n/a	0.0	0	0	0	FR2	3	R1030J
2246.335	7.494	2358516	REC_WORD	22.519	n/a	FOOT	-999	0	22	[0, 0, 0]	n/a	0	1	0	n/a	n/a	0.0	0	0	0	FR2	3	R1030J
2253.829	1.907	2366009	REC_END	n/a	n/a	n/a	-999	0	22	[0, 0, 0]	n/a	0	1	0	n/a	n/a	0.0	0	0	0	FR2	3	R1030J
2255.736	0.0	2367916	TRIAL	n/a	n/a	n/a	-999	0	23	[0, 0, 0]	n/a	0	1	0	n/a	n/a	0.0	0	0	0	FR2	3	R1030J
2255.736	10.0	2367916	COUNTDOWN_START	n/a	n/a	n/a	-999	0	23	[0, 0, 0]	n/a	0	1	0	n/a	n/a	0.0	0	0	0	FR2	3	R1030J
2266.164	0.005	2378343	COUNTDOWN_END	n/a	n/a	n/a	-999	0	23	[0, 0, 0]	n/a	0	1	0	n/a	n/a	0.0	0	0	0	FR2	3	R1030J
2266.169	1.6	2378348	ORIENT	n/a	n/a	n/a	-999	0	23	[0, 0, 0]	n/a	0	1	0	n/a	n/a	0.0	0	0	0	FR2	3	R1030J
2268.724	1.6	2380903	WORD	n/a	wordpools/wordpool_EN.txt	ROOT	1	0	23	[0, 0, 0]	n/a	0	1	0	n/a	n/a	0.0	0	0	0	FR2	3	R1030J
2271.328	1.6	2383506	WORD	n/a	wordpools/wordpool_EN.txt	MOLE	2	0	23	[0, 0, 0]	n/a	0	1	0	n/a	n/a	0.0	0	0	0	FR2	3	R1030J
2273.645	4.6	2385823	STIM_ON	n/a	n/a	n/a	-999	0	23	[0, 0, 0]	n/a	1	1	4600	LQ2	LQ3	500.0	50	230	300	FR2	3	R1030J
2273.85	1.6	2386028	WORD	n/a	wordpools/wordpool_EN.txt	LEAF	3	0	23	[0, 0, 0]	n/a	1	1	4600	LQ2	LQ3	500.0	50	230	300	FR2	3	R1030J
2276.269	1.6	2388447	WORD	n/a	wordpools/wordpool_EN.txt	DART	4	0	23	[0, 0, 0]	n/a	1	1	4600	LQ2	LQ3	500.0	50	230	300	FR2	3	R1030J
2278.825	1.6	2391002	WORD	n/a	wordpools/wordpool_EN.txt	FISH	5	0	23	[0, 0, 0]	n/a	0	1	0	n/a	n/a	0.0	0	0	0	FR2	3	R1030J
2281.294	1.6	2393471	WORD	n/a	wordpools/wordpool_EN.txt	LAKE	6	0	23	[0, 0, 0]	n/a	0	1	0	n/a	n/a	0.0	0	0	0	FR2	3	R1030J
2283.531	4.6	2395708	STIM_ON	n/a	n/a	n/a	-999	0	23	[0, 0, 0]	n/a	1	1	4600	LQ2	LQ3	500.0	50	230	300	FR2	3	R1030J
2283.749	1.6	2395926	WORD	n/a	wordpools/wordpool_EN.txt	SALT	7	0	23	[0, 0, 0]	n/a	1	1	4600	LQ2	LQ3	500.0	50	230	300	FR2	3	R1030J
2286.236	1.6	2398413	WORD	n/a	wordpools/wordpool_EN.txt	NET	8	0	23	[0, 0, 0]	n/a	1	1	4600	LQ2	LQ3	500.0	50	230	300	FR2	3	R1030J
2288.758	1.6	2400934	WORD	n/a	wordpools/wordpool_EN.txt	ANT	9	0	23	[0, 0, 0]	n/a	0	1	0	n/a	n/a	0.0	0	0	0	FR2	3	R1030J
2291.362	1.6	2403538	WORD	n/a	wordpools/wordpool_EN.txt	RICE	10	0	23	[0, 0, 0]	n/a	0	1	0	n/a	n/a	0.0	0	0	0	FR2	3	R1030J
2293.664	4.6	2405840	STIM_ON	n/a	n/a	n/a	-999	0	23	[0, 0, 0]	n/a	1	1	4600	LQ2	LQ3	500.0	50	230	300	FR2	3	R1030J
2293.883	1.6	2406059	WORD	n/a	wordpools/wordpool_EN.txt	TOOTH	11	1	23	[0, 0, 0]	n/a	1	1	4600	LQ2	LQ3	500.0	50	230	300	FR2	3	R1030J
2296.303	1.6	2408479	WORD	n/a	wordpools/wordpool_EN.txt	PEARL	12	1	23	[0, 0, 0]	n/a	1	1	4600	LQ2	LQ3	500.0	50	230	300	FR2	3	R1030J
2297.923	0.001	2410099	DISTRACT_START	n/a	n/a	n/a	-999	0	23	[0, 0, 0]	n/a	1	1	4600	LQ2	LQ3	500.0	50	230	300	FR2	3	R1030J
2297.924	0.016	2410100	START	n/a	n/a	n/a	-999	0	23	[-999, -999, -999]	n/a	0	1	0	n/a	n/a	0.0	0	0	0	FR2	3	R1030J
2297.94	3.288	2410116	PROB	3.254	n/a	n/a	-999	0	23	[9, 6, 1]	16	0	1	0	n/a	n/a	0.0	0	0	0	FR2	3	R1030J
2301.228	3.005	2413403	PROB	2.975	n/a	n/a	-999	0	23	[7, 9, 1]	17	0	1	0	n/a	n/a	0.0	0	0	0	FR2	3	R1030J
2304.233	2.755	2416408	PROB	2.729	n/a	n/a	-999	0	23	[8, 3, 5]	16	0	1	0	n/a	n/a	0.0	0	0	0	FR2	3	R1030J
2306.988	2.405	2419163	PROB	2.375	n/a	n/a	-999	0	23	[4, 4, 2]	10	0	1	0	n/a	n/a	0.0	0	0	0	FR2	3	R1030J
2309.393	3.255	2421567	PROB	3.226	n/a	n/a	-999	0	23	[1, 7, 4]	12	0	1	0	n/a	n/a	0.0	0	0	0	FR2	3	R1030J
2312.648	3.189	2424822	PROB	3.163	n/a	n/a	-999	0	23	[8, 1, 2]	11	0	1	0	n/a	n/a	0.0	0	0	0	FR2	3	R1030J
2315.837	3.062	2428011	PROB	3.062	n/a	n/a	-999	0	23	[9, 3, 6]	18	0	1	0	n/a	n/a	0.0	0	0	0	FR2	3	R1030J
2318.899	0.01	2431072	STOP	n/a	n/a	n/a	-999	0	23	[-999, -999, -999]	n/a	0	1	0	n/a	n/a	0.0	0	0	0	FR2	3	R1030J
2318.909	1.185	2431082	DISTRACT_END	n/a	n/a	n/a	-999	0	23	[0, 0, 0]	n/a	0	1	0	n/a	n/a	0.0	0	0	0	FR2	3	R1030J
2320.094	2.171	2432267	REC_START	n/a	n/a	n/a	-999	0	23	[0, 0, 0]	n/a	0	1	0	n/a	n/a	0.0	0	0	0	FR2	3	R1030J
2322.265	0.893	2434438	REC_WORD	2.171	n/a	TOOTH	11	1	23	[0, 0, 0]	n/a	0	1	0	n/a	n/a	0.0	0	0	0	FR2	3	R1030J
2323.158	16.47	2435331	REC_WORD	3.064	n/a	PEARL	12	1	23	[0, 0, 0]	n/a	0	1	0	n/a	n/a	0.0	0	0	0	FR2	3	R1030J
2339.628	10.478	2451799	REC_WORD	19.534	n/a	ICE	-999	0	23	[0, 0, 0]	n/a	0	1	0	n/a	n/a	0.0	0	0	0	FR2	3	R1030J
2350.106	1.725	2462276	REC_END	n/a	n/a	n/a	-999	0	23	[0, 0, 0]	n/a	0	1	0	n/a	n/a	0.0	0	0	0	FR2	3	R1030J
2351.831	0.0	2464001	TRIAL	n/a	n/a	n/a	-999	0	24	[0, 0, 0]	n/a	0	1	0	n/a	n/a	0.0	0	0	0	FR2	3	R1030J
2351.831	10.0	2464001	COUNTDOWN_START	n/a	n/a	n/a	-999	0	24	[0, 0, 0]	n/a	0	1	0	n/a	n/a	0.0	0	0	0	FR2	3	R1030J
2362.259	0.005	2474428	COUNTDOWN_END	n/a	n/a	n/a	-999	0	24	[0, 0, 0]	n/a	0	1	0	n/a	n/a	0.0	0	0	0	FR2	3	R1030J
2362.264	1.6	2474433	ORIENT	n/a	n/a	n/a	-999	0	24	[0, 0, 0]	n/a	0	1	0	n/a	n/a	0.0	0	0	0	FR2	3	R1030J
2364.519	4.6	2476688	STIM_ON	n/a	n/a	n/a	-999	0	24	[0, 0, 0]	n/a	1	1	4600	LQ2	LQ3	500.0	50	230	300	FR2	3	R1030J
2364.736	1.6	2476905	WORD	n/a	wordpools/wordpool_EN.txt	MOUSE	1	0	24	[0, 0, 0]	n/a	1	1	4600	LQ2	LQ3	500.0	50	230	300	FR2	3	R1030J
2367.222	1.6	2479391	WORD	n/a	wordpools/wordpool_EN.txt	ROOM	2	1	24	[0, 0, 0]	n/a	1	1	4600	LQ2	LQ3	500.0	50	230	300	FR2	3	R1030J
2369.627	1.6	2481795	WORD	n/a	wordpools/wordpool_EN.txt	DRESS	3	0	24	[0, 0, 0]	n/a	0	1	0	n/a	n/a	0.0	0	0	0	FR2	3	R1030J
2372.214	1.6	2484382	WORD	n/a	wordpools/wordpool_EN.txt	LAMP	4	0	24	[0, 0, 0]	n/a	0	1	0	n/a	n/a	0.0	0	0	0	FR2	3	R1030J
2374.465	4.6	2486633	STIM_ON	n/a	n/a	n/a	-999	0	24	[0, 0, 0]	n/a	1	1	4600	LQ2	LQ3	500.0	50	230	300	FR2	3	R1030J
2374.669	1.6	2486837	WORD	n/a	wordpools/wordpool_EN.txt	FUR	5	0	24	[0, 0, 0]	n/a	1	1	4600	LQ2	LQ3	500.0	50	230	300	FR2	3	R1030J
2377.139	1.6	2489307	WORD	n/a	wordpools/wordpool_EN.txt	HOUSE	6	0	24	[0, 0, 0]	n/a	1	1	4600	LQ2	LQ3	500.0	50	230	300	FR2	3	R1030J
2379.577	1.6	2491744	WORD	n/a	wordpools/wordpool_EN.txt	CART	7	0	24	[0, 0, 0]	n/a	0	1	0	n/a	n/a	0.0	0	0	0	FR2	3	R1030J
2381.965	1.6	2494132	WORD	n/a	wordpools/wordpool_EN.txt	SKUNK	8	0	24	[0, 0, 0]	n/a	0	1	0	n/a	n/a	0.0	0	0	0	FR2	3	R1030J
2384.221	4.6	2496388	STIM_ON	n/a	n/a	n/a	-999	0	24	[0, 0, 0]	n/a	1	1	4600	LQ2	LQ3	500.0	50	230	300	FR2	3	R1030J
2384.436	1.6	2496603	WORD	n/a	wordpools/wordpool_EN.txt	BROOM	9	0	24	[0, 0, 0]	n/a	1	1	4600	LQ2	LQ3	500.0	50	230	300	FR2	3	R1030J
2386.906	1.6	2499073	WORD	n/a	wordpools/wordpool_EN.txt	PIG	10	1	24	[0, 0, 0]	n/a	1	1	4600	LQ2	LQ3	500.0	50	230	300	FR2	3	R1030J
2389.293	1.6	2501459	WORD	n/a	wordpools/wordpool_EN.txt	CHAIR	11	0	24	[0, 0, 0]	n/a	0	1	0	n/a	n/a	0.0	0	0	0	FR2	3	R1030J
2391.865	1.6	2504031	WORD	n/a	wordpools/wordpool_EN.txt	MOOSE	12	0	24	[0, 0, 0]	n/a	0	1	0	n/a	n/a	0.0	0	0	0	FR2	3	R1030J
2393.484	0.001	2505650	DISTRACT_START	n/a	n/a	n/a	-999	0	24	[0, 0, 0]	n/a	0	1	0	n/a	n/a	0.0	0	0	0	FR2	3	R1030J
2393.485	0.016	2505651	START	n/a	n/a	n/a	-999	0	24	[-999, -999, -999]	n/a	0	1	0	n/a	n/a	0.0	0	0	0	FR2	3	R1030J
2393.501	3.455	2505667	PROB	3.422	n/a	n/a	-999	0	24	[2, 1, 3]	6	0	1	0	n/a	n/a	0.0	0	0	0	FR2	3	R1030J
2396.956	2.572	2509122	PROB	2.551	n/a	n/a	-999	0	24	[7, 6, 7]	20	0	1	0	n/a	n/a	0.0	0	0	0	FR2	3	R1030J
2399.528	2.57	2511693	PROB	2.538	n/a	n/a	-999	0	24	[1, 3, 8]	12	0	1	0	n/a	n/a	0.0	0	0	0	FR2	3	R1030J
2402.098	1.804	2514263	PROB	1.769	n/a	n/a	-999	0	24	[1, 1, 3]	5	0	1	0	n/a	n/a	0.0	0	0	0	FR2	3	R1030J
2403.902	2.854	2516067	PROB	2.821	n/a	n/a	-999	0	24	[5, 8, 3]	16	0	1	0	n/a	n/a	0.0	0	0	0	FR2	3	R1030J
2406.756	3.238	2518921	PROB	3.206	n/a	n/a	-999	0	24	[9, 5, 3]	17	0	1	0	n/a	n/a	0.0	0	0	0	FR2	3	R1030J
2409.994	2.104	2522158	PROB	2.081	n/a	n/a	-999	0	24	[1, 6, 3]	10	0	1	0	n/a	n/a	0.0	0	0	0	FR2	3	R1030J
2412.098	2.777	2524262	PROB	2.777	n/a	n/a	-999	0	24	[5, 7, 3]	15	0	1	0	n/a	n/a	0.0	0	0	0	FR2	3	R1030J
2414.875	0.012	2527039	STOP	n/a	n/a	n/a	-999	0	24	[-999, -999, -999]	n/a	0	1	0	n/a	n/a	0.0	0	0	0	FR2	3	R1030J
2414.887	1.168	2527051	DISTRACT_END	n/a	n/a	n/a	-999	0	24	[0, 0, 0]	n/a	0	1	0	n/a	n/a	0.0	0	0	0	FR2	3	R1030J
2416.055	2.504	2528219	REC_START	n/a	n/a	n/a	-999	0	24	[0, 0, 0]	n/a	0	1	0	n/a	n/a	0.0	0	0	0	FR2	3	R1030J
2418.559	2.284	2530722	REC_WORD	2.504	n/a	ROOM	2	1	24	[0, 0, 0]	n/a	0	1	0	n/a	n/a	0.0	0	0	0	FR2	3	R1030J
2420.843	21.17	2533006	REC_WORD	4.788	n/a	PIG	10	1	24	[0, 0, 0]	n/a	0	1	0	n/a	n/a	0.0	0	0	0	FR2	3	R1030J
2442.013	4.055	2554174	REC_WORD	25.958	n/a	ROPE	-999	0	24	[0, 0, 0]	n/a	0	1	0	n/a	n/a	0.0	0	0	0	FR2	3	R1030J
2446.068	1.825	2558229	REC_END	n/a	n/a	n/a	-999	0	24	[0, 0, 0]	n/a	0	1	0	n/a	n/a	0.0	0	0	0	FR2	3	R1030J
2447.893	0.0	2560053	TRIAL	n/a	n/a	n/a	-999	0	25	[0, 0, 0]	n/a	0	1	0	n/a	n/a	0.0	0	0	0	FR2	3	R1030J
2447.893	10.0	2560053	COUNTDOWN_START	n/a	n/a	n/a	-999	0	25	[0, 0, 0]	n/a	0	1	0	n/a	n/a	0.0	0	0	0	FR2	3	R1030J
2458.321	0.005	2570480	COUNTDOWN_END	n/a	n/a	n/a	-999	0	25	[0, 0, 0]	n/a	0	1	0	n/a	n/a	0.0	0	0	0	FR2	3	R1030J
2458.326	1.6	2570485	ORIENT	n/a	n/a	n/a	-999	0	25	[0, 0, 0]	n/a	0	1	0	n/a	n/a	0.0	0	0	0	FR2	3	R1030J
2460.781	1.6	2572940	WORD	n/a	wordpools/wordpool_EN.txt	TIE	1	0	25	[0, 0, 0]	n/a	0	1	0	n/a	n/a	0.0	0	0	0	FR2	3	R1030J
2463.234	1.6	2575393	WORD	n/a	wordpools/wordpool_EN.txt	MULE	2	0	25	[0, 0, 0]	n/a	0	1	0	n/a	n/a	0.0	0	0	0	FR2	3	R1030J
2465.468	4.6	2577627	STIM_ON	n/a	n/a	n/a	-999	0	25	[0, 0, 0]	n/a	1	1	4600	LQ2	LQ3	500.0	50	230	300	FR2	3	R1030J
2465.672	1.6	2577831	WORD	n/a	wordpools/wordpool_EN.txt	FENCE	3	0	25	[0, 0, 0]	n/a	1	1	4600	LQ2	LQ3	500.0	50	230	300	FR2	3	R1030J
2468.06	1.6	2580218	WORD	n/a	wordpools/wordpool_EN.txt	BLUSH	4	0	25	[0, 0, 0]	n/a	1	1	4600	LQ2	LQ3	500.0	50	230	300	FR2	3	R1030J
2470.697	1.6	2582855	WORD	n/a	wordpools/wordpool_EN.txt	VAN	5	0	25	[0, 0, 0]	n/a	0	1	0	n/a	n/a	0.0	0	0	0	FR2	3	R1030J
2473.318	1.6	2585476	WORD	n/a	wordpools/wordpool_EN.txt	STREET	6	0	25	[0, 0, 0]	n/a	0	1	0	n/a	n/a	0.0	0	0	0	FR2	3	R1030J
2475.577	4.6	2587735	STIM_ON	n/a	n/a	n/a	-999	0	25	[0, 0, 0]	n/a	1	1	4600	LQ2	LQ3	500.0	50	230	300	FR2	3	R1030J
2475.789	1.6	2587947	WORD	n/a	wordpools/wordpool_EN.txt	PURSE	7	0	25	[0, 0, 0]	n/a	1	1	4600	LQ2	LQ3	500.0	50	230	300	FR2	3	R1030J
2478.309	1.6	2590466	WORD	n/a	wordpools/wordpool_EN.txt	DIME	8	0	25	[0, 0, 0]	n/a	1	1	4600	LQ2	LQ3	500.0	50	230	300	FR2	3	R1030J
2480.698	1.6	2592855	WORD	n/a	wordpools/wordpool_EN.txt	HORN	9	0	25	[0, 0, 0]	n/a	0	1	0	n/a	n/a	0.0	0	0	0	FR2	3	R1030J
