onset	duration	sample	trial_type	response_time	stim_file	item_name	serialpos	recalled	list	test	answer	stimulation	stim_list	stim_duration	anode_label	cathode_label	amplitude	pulse_freq	n_pulses	pulse_width	experiment	session	subject
0.0	22.148	196417	SESS_START	n/a	n/a	n/a	-999	0	-999	[0, 0, 0]	n/a	0	0	0	n/a	n/a	0.0	0	0	0	FR2	0	R1031M
22.148	10.0	207490	COUNTDOWN_START	n/a	n/a	n/a	-999	0	-999	[0, 0, 0]	n/a	0	0	0	n/a	n/a	0.0	0	0	0	FR2	0	R1031M
32.576	3.491	212703	COUNTDOWN_END	n/a	n/a	n/a	-999	0	-999	[0, 0, 0]	n/a	0	0	0	n/a	n/a	0.0	0	0	0	FR2	0	R1031M
36.067	1.6	214449	PRACTICE_WORD	n/a	n/a	FLOOD	1	0	-1	[0, 0, 0]	n/a	0	0	0	n/a	n/a	0.0	0	0	0	FR2	0	R1031M
38.585	1.6	215707	PRACTICE_WORD	n/a	n/a	WATCH	2	0	-1	[0, 0, 0]	n/a	0	0	0	n/a	n/a	0.0	0	0	0	FR2	0	R1031M
41.101	1.6	216965	PRACTICE_WORD	n/a	n/a	CHEST	3	0	-1	[0, 0, 0]	n/a	0	0	0	n/a	n/a	0.0	0	0	0	FR2	0	R1031M
43.718	1.6	218274	PRACTICE_WORD	n/a	n/a	IRON	4	0	-1	[0, 0, 0]	n/a	0	0	0	n/a	n/a	0.0	0	0	0	FR2	0	R1031M
46.186	1.6	219508	PRACTICE_WORD	n/a	n/a	BEAM	5	0	-1	[0, 0, 0]	n/a	0	0	0	n/a	n/a	0.0	0	0	0	FR2	0	R1031M
48.786	1.6	220807	PRACTICE_WORD	n/a	n/a	COTTON	6	0	-1	[0, 0, 0]	n/a	0	0	0	n/a	n/a	0.0	0	0	0	FR2	0	R1031M
51.187	1.6	222008	PRACTICE_WORD	n/a	n/a	RHINO	7	0	-1	[0, 0, 0]	n/a	0	0	0	n/a	n/a	0.0	0	0	0	FR2	0	R1031M
53.737	1.6	223283	PRACTICE_WORD	n/a	n/a	CAMEL	8	0	-1	[0, 0, 0]	n/a	0	0	0	n/a	n/a	0.0	0	0	0	FR2	0	R1031M
56.138	1.6	224483	PRACTICE_WORD	n/a	n/a	ATTIC	9	0	-1	[0, 0, 0]	n/a	0	0	0	n/a	n/a	0.0	0	0	0	FR2	0	R1031M
58.721	1.6	225774	PRACTICE_WORD	n/a	n/a	WAGON	10	0	-1	[0, 0, 0]	n/a	0	0	0	n/a	n/a	0.0	0	0	0	FR2	0	R1031M
61.172	1.6	227000	PRACTICE_WORD	n/a	n/a	RING	11	0	-1	[0, 0, 0]	n/a	0	0	0	n/a	n/a	0.0	0	0	0	FR2	0	R1031M
63.756	1.6	228292	PRACTICE_WORD	n/a	n/a	TONGUE	12	0	-1	[0, 0, 0]	n/a	0	0	0	n/a	n/a	0.0	0	0	0	FR2	0	R1031M
65.357	0.0	229092	PRACTICE_DISTRACT_START	n/a	n/a	n/a	-999	0	-1	[0, 0, 0]	n/a	0	0	0	n/a	n/a	0.0	0	0	0	FR2	0	R1031M
65.357	0.017	229092	START	n/a	n/a	n/a	-999	0	-1	[-999, -999, -999]	n/a	0	0	0	n/a	n/a	0.0	0	0	0	FR2	0	R1031M
65.374	4.951	229101	PROB	4.927	n/a	n/a	-999	0	-1	[9, 6, 9]	24	0	0	0	n/a	n/a	0.0	0	0	0	FR2	0	R1031M
70.325	3.1	231576	PROB	3.08	n/a	n/a	-999	0	-1	[5, 6, 4]	15	0	0	0	n/a	n/a	0.0	0	0	0	FR2	0	R1031M
73.425	3.483	233126	PROB	3.451	n/a	n/a	-999	0	-1	[5, 7, 8]	20	0	0	0	n/a	n/a	0.0	0	0	0	FR2	0	R1031M
76.908	3.084	234867	PROB	3.064	n/a	n/a	-999	0	-1	[2, 3, 5]	10	0	0	0	n/a	n/a	0.0	0	0	0	FR2	0	R1031M
79.992	2.502	236409	PROB	2.469	n/a	n/a	-999	0	-1	[2, 2, 7]	11	0	0	0	n/a	n/a	0.0	0	0	0	FR2	0	R1031M
82.494	2.8	237660	PROB	2.775	n/a	n/a	-999	0	-1	[7, 4, 4]	15	0	0	0	n/a	n/a	0.0	0	0	0	FR2	0	R1031M
85.294	2.902	239060	PROB	2.902	n/a	n/a	-999	0	-1	[2, 5, 6]	13	0	0	0	n/a	n/a	0.0	0	0	0	FR2	0	R1031M
88.196	0.015	240510	STOP	n/a	n/a	n/a	-999	0	-1	[-999, -999, -999]	n/a	0	0	0	n/a	n/a	0.0	0	0	0	FR2	0	R1031M
88.211	0.652	240518	PRACTICE_DISTRACT_END	n/a	n/a	n/a	-999	0	-1	[0, 0, 0]	n/a	0	0	0	n/a	n/a	0.0	0	0	0	FR2	0	R1031M
88.863	30.515	240844	PRACTICE_REC_START	n/a	n/a	n/a	-999	0	-1	[0, 0, 0]	n/a	0	0	0	n/a	n/a	0.0	0	0	0	FR2	0	R1031M
119.378	25.078	256100	PRACTICE_REC_END	n/a	n/a	n/a	-999	0	-1	[0, 0, 0]	n/a	0	0	0	n/a	n/a	0.0	0	0	0	FR2	0	R1031M
144.456	0.0	268637	TRIAL	n/a	n/a	n/a	-999	0	1	[0, 0, 0]	n/a	0	1	0	n/a	n/a	0.0	0	0	0	FR2	0	R1031M
144.456	10.0	268637	COUNTDOWN_START	n/a	n/a	n/a	-999	0	1	[0, 0, 0]	n/a	0	1	0	n/a	n/a	0.0	0	0	0	FR2	0	R1031M
154.884	0.006	273851	COUNTDOWN_END	n/a	n/a	n/a	-999	0	1	[0, 0, 0]	n/a	0	1	0	n/a	n/a	0.0	0	0	0	FR2	0	R1031M
154.89	1.6	273854	ORIENT	n/a	n/a	n/a	-999	0	1	[0, 0, 0]	n/a	0	1	0	n/a	n/a	0.0	0	0	0	FR2	0	R1031M
157.492	1.6	275155	WORD	n/a	wordpools/wordpool_EN.txt	CLOUD	1	1	1	[0, 0, 0]	n/a	0	1	0	n/a	n/a	0.0	0	0	0	FR2	0	R1031M
160.024	1.6	276421	WORD	n/a	wordpools/wordpool_EN.txt	JUDGE	2	0	1	[0, 0, 0]	n/a	0	1	0	n/a	n/a	0.0	0	0	0	FR2	0	R1031M
162.316	4.6	277567	STIM_ON	n/a	n/a	n/a	-999	0	1	[0, 0, 0]	n/a	1	1	4600	RTD5	RTD6	1500.0	50	230	300	FR2	0	R1031M
162.526	1.6	277672	WORD	n/a	wordpools/wordpool_EN.txt	WHALE	3	0	1	[0, 0, 0]	n/a	1	1	4600	RTD5	RTD6	1500.0	50	230	300	FR2	0	R1031M
165.059	1.6	278938	WORD	n/a	wordpools/wordpool_EN.txt	HORSE	4	1	1	[0, 0, 0]	n/a	1	1	4600	RTD5	RTD6	1500.0	50	230	300	FR2	0	R1031M
167.577	1.6	280197	WORD	n/a	wordpools/wordpool_EN.txt	BEACH	5	0	1	[0, 0, 0]	n/a	0	1	0	n/a	n/a	0.0	0	0	0	FR2	0	R1031M
169.993	1.6	281405	WORD	n/a	wordpools/wordpool_EN.txt	STAR	6	0	1	[0, 0, 0]	n/a	0	1	0	n/a	n/a	0.0	0	0	0	FR2	0	R1031M
172.185	4.6	282501	STIM_ON	n/a	n/a	n/a	-999	0	1	[0, 0, 0]	n/a	1	1	4600	RTD5	RTD6	1500.0	50	230	300	FR2	0	R1031M
172.394	1.6	282605	WORD	n/a	wordpools/wordpool_EN.txt	WAVE	7	0	1	[0, 0, 0]	n/a	1	1	4600	RTD5	RTD6	1500.0	50	230	300	FR2	0	R1031M
174.794	1.6	283805	WORD	n/a	wordpools/wordpool_EN.txt	SMOKE	8	0	1	[0, 0, 0]	n/a	1	1	4600	RTD5	RTD6	1500.0	50	230	300	FR2	0	R1031M
177.211	1.6	285013	WORD	n/a	wordpools/wordpool_EN.txt	HEN	9	0	1	[0, 0, 0]	n/a	0	1	0	n/a	n/a	0.0	0	0	0	FR2	0	R1031M
179.596	1.6	286206	WORD	n/a	wordpools/wordpool_EN.txt	HEART	10	0	1	[0, 0, 0]	n/a	0	1	0	n/a	n/a	0.0	0	0	0	FR2	0	R1031M
181.858	4.6	287337	STIM_ON	n/a	n/a	n/a	-999	0	1	[0, 0, 0]	n/a	1	1	4600	RTD5	RTD6	1500.0	50	230	300	FR2	0	R1031M
182.062	1.6	287439	WORD	n/a	wordpools/wordpool_EN.txt	GLOVE	11	0	1	[0, 0, 0]	n/a	1	1	4600	RTD5	RTD6	1500.0	50	230	300	FR2	0	R1031M
184.497	1.6	288656	WORD	n/a	wordpools/wordpool_EN.txt	VEST	12	0	1	[0, 0, 0]	n/a	1	1	4600	RTD5	RTD6	1500.0	50	230	300	FR2	0	R1031M
186.113	0.001	289464	DISTRACT_START	n/a	n/a	n/a	-999	0	1	[0, 0, 0]	n/a	1	1	4600	RTD5	RTD6	1500.0	50	230	300	FR2	0	R1031M
186.114	0.015	289464	START	n/a	n/a	n/a	-999	0	1	[-999, -999, -999]	n/a	0	1	0	n/a	n/a	0.0	0	0	0	FR2	0	R1031M
186.129	5.552	289472	PROB	5.524	n/a	n/a	-999	0	1	[7, 2, 8]	17	0	1	0	n/a	n/a	0.0	0	0	0	FR2	0	R1031M
191.681	2.483	292248	PROB	2.459	n/a	n/a	-999	0	1	[8, 8, 8]	24	0	1	0	n/a	n/a	0.0	0	0	0	FR2	0	R1031M
194.164	2.984	293489	PROB	2.952	n/a	n/a	-999	0	1	[5, 4, 8]	17	0	1	0	n/a	n/a	0.0	0	0	0	FR2	0	R1031M
197.148	3.135	294981	PROB	3.113	n/a	n/a	-999	0	1	[9, 2, 2]	13	0	1	0	n/a	n/a	0.0	0	0	0	FR2	0	R1031M
200.283	2.633	296548	PROB	2.609	n/a	n/a	-999	0	1	[2, 2, 8]	12	0	1	0	n/a	n/a	0.0	0	0	0	FR2	0	R1031M
202.916	6.497	297864	PROB	6.497	n/a	n/a	-999	0	1	[4, 4, 6]	14	0	1	0	n/a	n/a	0.0	0	0	0	FR2	0	R1031M
209.413	0.005	301113	STOP	n/a	n/a	n/a	-999	0	1	[-999, -999, -999]	n/a	0	1	0	n/a	n/a	0.0	0	0	0	FR2	0	R1031M
209.418	1.135	301115	DISTRACT_END	n/a	n/a	n/a	-999	0	1	[0, 0, 0]	n/a	0	1	0	n/a	n/a	0.0	0	0	0	FR2	0	R1031M
210.553	1.537	301683	REC_START	n/a	n/a	n/a	-999	0	1	[0, 0, 0]	n/a	0	1	0	n/a	n/a	0.0	0	0	0	FR2	0	R1031M
212.09	2.249	302451	REC_WORD	1.537	n/a	CLOUD	1	1	1	[0, 0, 0]	n/a	0	1	0	n/a	n/a	0.0	0	0	0	FR2	0	R1031M
214.339	26.225	303575	REC_WORD	3.786	n/a	HORSE	4	1	1	[0, 0, 0]	n/a	0	1	0	n/a	n/a	0.0	0	0	0	FR2	0	R1031M
240.564	2.961	316686	REC_END	n/a	n/a	n/a	-999	0	1	[0, 0, 0]	n/a	0	1	0	n/a	n/a	0.0	0	0	0	FR2	0	R1031M
243.525	0.0	318167	TRIAL	n/a	n/a	n/a	-999	0	2	[0, 0, 0]	n/a	0	1	0	n/a	n/a	0.0	0	0	0	FR2	0	R1031M
243.525	10.0	318167	COUNTDOWN_START	n/a	n/a	n/a	-999	0	2	[0, 0, 0]	n/a	0	1	0	n/a	n/a	0.0	0	0	0	FR2	0	R1031M
253.953	0.006	323380	COUNTDOWN_END	n/a	n/a	n/a	-999	0	2	[0, 0, 0]	n/a	0	1	0	n/a	n/a	0.0	0	0	0	FR2	0	R1031M
253.959	1.6	323383	ORIENT	n/a	n/a	n/a	-999	0	2	[0, 0, 0]	n/a	0	1	0	n/a	n/a	0.0	0	0	0	FR2	0	R1031M
256.333	4.6	324570	STIM_ON	n/a	n/a	n/a	-999	0	2	[0, 0, 0]	n/a	1	1	4600	RTD5	RTD6	1500.0	50	230	300	FR2	0	R1031M
256.544	1.6	324676	WORD	n/a	wordpools/wordpool_EN.txt	INK	1	1	2	[0, 0, 0]	n/a	1	1	4600	RTD5	RTD6	1500.0	50	230	300	FR2	0	R1031M
258.96	1.6	325884	WORD	n/a	wordpools/wordpool_EN.txt	TEA	2	0	2	[0, 0, 0]	n/a	1	1	4600	RTD5	RTD6	1500.0	50	230	300	FR2	0	R1031M
261.345	1.6	327076	WORD	n/a	wordpools/wordpool_EN.txt	TOY	3	0	2	[0, 0, 0]	n/a	0	1	0	n/a	n/a	0.0	0	0	0	FR2	0	R1031M
263.828	1.6	328317	WORD	n/a	wordpools/wordpool_EN.txt	MULE	4	0	2	[0, 0, 0]	n/a	0	1	0	n/a	n/a	0.0	0	0	0	FR2	0	R1031M
266.041	4.6	329424	STIM_ON	n/a	n/a	n/a	-999	0	2	[0, 0, 0]	n/a	1	1	4600	RTD5	RTD6	1500.0	50	230	300	FR2	0	R1031M
266.245	1.6	329526	WORD	n/a	wordpools/wordpool_EN.txt	BOY	5	0	2	[0, 0, 0]	n/a	1	1	4600	RTD5	RTD6	1500.0	50	230	300	FR2	0	R1031M
268.63	1.6	330718	WORD	n/a	wordpools/wordpool_EN.txt	TIE	6	0	2	[0, 0, 0]	n/a	1	1	4600	RTD5	RTD6	1500.0	50	230	300	FR2	0	R1031M
271.146	1.6	331976	WORD	n/a	wordpools/wordpool_EN.txt	CLOTH	7	0	2	[0, 0, 0]	n/a	0	1	0	n/a	n/a	0.0	0	0	0	FR2	0	R1031M
273.664	1.6	333235	WORD	n/a	wordpools/wordpool_EN.txt	SPRING	8	0	2	[0, 0, 0]	n/a	0	1	0	n/a	n/a	0.0	0	0	0	FR2	0	R1031M
275.974	4.6	334390	STIM_ON	n/a	n/a	n/a	-999	0	2	[0, 0, 0]	n/a	1	1	4600	RTD5	RTD6	1500.0	50	230	300	FR2	0	R1031M
276.18	1.6	334493	WORD	n/a	wordpools/wordpool_EN.txt	SQUARE	9	0	2	[0, 0, 0]	n/a	1	1	4600	RTD5	RTD6	1500.0	50	230	300	FR2	0	R1031M
278.665	1.6	335735	WORD	n/a	wordpools/wordpool_EN.txt	PEACH	10	0	2	[0, 0, 0]	n/a	1	1	4600	RTD5	RTD6	1500.0	50	230	300	FR2	0	R1031M
281.081	1.6	336943	WORD	n/a	wordpools/wordpool_EN.txt	TOOL	11	0	2	[0, 0, 0]	n/a	0	1	0	n/a	n/a	0.0	0	0	0	FR2	0	R1031M
283.549	1.6	338177	WORD	n/a	wordpools/wordpool_EN.txt	PLATE	12	0	2	[0, 0, 0]	n/a	0	1	0	n/a	n/a	0.0	0	0	0	FR2	0	R1031M
285.165	0.001	338985	DISTRACT_START	n/a	n/a	n/a	-999	0	2	[0, 0, 0]	n/a	0	1	0	n/a	n/a	0.0	0	0	0	FR2	0	R1031M
285.166	0.016	338985	START	n/a	n/a	n/a	-999	0	2	[-999, -999, -999]	n/a	0	1	0	n/a	n/a	0.0	0	0	0	FR2	0	R1031M
285.182	3.551	338993	PROB	3.518	n/a	n/a	-999	0	2	[8, 1, 1]	10	0	1	0	n/a	n/a	0.0	0	0	0	FR2	0	R1031M
288.733	2.5	340769	PROB	2.471	n/a	n/a	-999	0	2	[5, 7, 1]	13	0	1	0	n/a	n/a	0.0	0	0	0	FR2	0	R1031M
291.233	3.185	342018	PROB	3.164	n/a	n/a	-999	0	2	[3, 6, 9]	18	0	1	0	n/a	n/a	0.0	0	0	0	FR2	0	R1031M
294.418	3.217	343611	PROB	3.195	n/a	n/a	-999	0	2	[6, 5, 3]	11	0	1	0	n/a	n/a	0.0	0	0	0	FR2	0	R1031M
297.635	3.167	345219	PROB	3.137	n/a	n/a	-999	0	2	[1, 3, 9]	13	0	1	0	n/a	n/a	0.0	0	0	0	FR2	0	R1031M
300.802	3.033	346802	PROB	3.01	n/a	n/a	-999	0	2	[1, 4, 2]	7	0	1	0	n/a	n/a	0.0	0	0	0	FR2	0	R1031M
303.835	3.393	348319	PROB	3.393	n/a	n/a	-999	0	2	[8, 8, 1]	17	0	1	0	n/a	n/a	0.0	0	0	0	FR2	0	R1031M
307.228	0.008	350015	STOP	n/a	n/a	n/a	-999	0	2	[-999, -999, -999]	n/a	0	1	0	n/a	n/a	0.0	0	0	0	FR2	0	R1031M
307.236	1.035	350019	DISTRACT_END	n/a	n/a	n/a	-999	0	2	[0, 0, 0]	n/a	0	1	0	n/a	n/a	0.0	0	0	0	FR2	0	R1031M
308.271	1.786	350536	REC_START	n/a	n/a	n/a	-999	0	2	[0, 0, 0]	n/a	0	1	0	n/a	n/a	0.0	0	0	0	FR2	0	R1031M
310.057	28.23	351429	REC_WORD	1.786	n/a	INK	1	1	2	[0, 0, 0]	n/a	0	1	0	n/a	n/a	0.0	0	0	0	FR2	0	R1031M
338.287	32.645	365543	REC_END	n/a	n/a	n/a	-999	0	2	[0, 0, 0]	n/a	0	1	0	n/a	n/a	0.0	0	0	0	FR2	0	R1031M
370.932	0.0	381864	TRIAL	n/a	n/a	n/a	-999	0	3	[0, 0, 0]	n/a	0	1	0	n/a	n/a	0.0	0	0	0	FR2	0	R1031M
370.932	10.0	381864	COUNTDOWN_START	n/a	n/a	n/a	-999	0	3	[0, 0, 0]	n/a	0	1	0	n/a	n/a	0.0	0	0	0	FR2	0	R1031M
381.36	0.008	387077	COUNTDOWN_END	n/a	n/a	n/a	-999	0	3	[0, 0, 0]	n/a	0	1	0	n/a	n/a	0.0	0	0	0	FR2	0	R1031M
381.368	1.6	387081	ORIENT	n/a	n/a	n/a	-999	0	3	[0, 0, 0]	n/a	0	1	0	n/a	n/a	0.0	0	0	0	FR2	0	R1031M
383.57	4.6	388182	STIM_ON	n/a	n/a	n/a	-999	0	3	[0, 0, 0]	n/a	1	1	4600	RTD5	RTD6	1500.0	50	230	300	FR2	0	R1031M
383.784	1.6	388289	WORD	n/a	wordpools/wordpool_EN.txt	NAIL	1	1	3	[0, 0, 0]	n/a	1	1	4600	RTD5	RTD6	1500.0	50	230	300	FR2	0	R1031M
386.185	1.6	389489	WORD	n/a	wordpools/wordpool_EN.txt	JAIL	2	0	3	[0, 0, 0]	n/a	1	1	4600	RTD5	RTD6	1500.0	50	230	300	FR2	0	R1031M
388.603	1.6	390698	WORD	n/a	wordpools/wordpool_EN.txt	HOSE	3	0	3	[0, 0, 0]	n/a	0	1	0	n/a	n/a	0.0	0	0	0	FR2	0	R1031M
391.186	1.6	391990	WORD	n/a	wordpools/wordpool_EN.txt	SKI	4	0	3	[0, 0, 0]	n/a	0	1	0	n/a	n/a	0.0	0	0	0	FR2	0	R1031M
393.482	4.6	393138	STIM_ON	n/a	n/a	n/a	-999	0	3	[0, 0, 0]	n/a	1	1	4600	RTD5	RTD6	1500.0	50	230	300	FR2	0	R1031M
393.686	1.6	393240	WORD	n/a	wordpools/wordpool_EN.txt	DOCK	5	0	3	[0, 0, 0]	n/a	1	1	4600	RTD5	RTD6	1500.0	50	230	300	FR2	0	R1031M
396.137	1.6	394465	WORD	n/a	wordpools/wordpool_EN.txt	BOMB	6	0	3	[0, 0, 0]	n/a	1	1	4600	RTD5	RTD6	1500.0	50	230	300	FR2	0	R1031M
398.672	1.6	395732	WORD	n/a	wordpools/wordpool_EN.txt	HOOF	7	0	3	[0, 0, 0]	n/a	0	1	0	n/a	n/a	0.0	0	0	0	FR2	0	R1031M
401.254	1.6	397023	WORD	n/a	wordpools/wordpool_EN.txt	KEY	8	0	3	[0, 0, 0]	n/a	0	1	0	n/a	n/a	0.0	0	0	0	FR2	0	R1031M
403.574	4.6	398183	STIM_ON	n/a	n/a	n/a	-999	0	3	[0, 0, 0]	n/a	1	1	4600	RTD5	RTD6	1500.0	50	230	300	FR2	0	R1031M
403.788	1.6	398290	WORD	n/a	wordpools/wordpool_EN.txt	LAND	9	0	3	[0, 0, 0]	n/a	1	1	4600	RTD5	RTD6	1500.0	50	230	300	FR2	0	R1031M
406.222	1.6	399507	WORD	n/a	wordpools/wordpool_EN.txt	BOOT	10	0	3	[0, 0, 0]	n/a	1	1	4600	RTD5	RTD6	1500.0	50	230	300	FR2	0	R1031M
408.789	1.6	400790	WORD	n/a	wordpools/wordpool_EN.txt	LAKE	11	0	3	[0, 0, 0]	n/a	0	1	0	n/a	n/a	0.0	0	0	0	FR2	0	R1031M
411.274	1.6	402033	WORD	n/a	wordpools/wordpool_EN.txt	BOOK	12	0	3	[0, 0, 0]	n/a	0	1	0	n/a	n/a	0.0	0	0	0	FR2	0	R1031M
412.89	0.001	402841	DISTRACT_START	n/a	n/a	n/a	-999	0	3	[0, 0, 0]	n/a	0	1	0	n/a	n/a	0.0	0	0	0	FR2	0	R1031M
412.891	0.016	402841	START	n/a	n/a	n/a	-999	0	3	[-999, -999, -999]	n/a	0	1	0	n/a	n/a	0.0	0	0	0	FR2	0	R1031M
412.907	3.2	402849	PROB	3.169	n/a	n/a	-999	0	3	[5, 6, 2]	13	0	1	0	n/a	n/a	0.0	0	0	0	FR2	0	R1031M
416.107	3.535	404449	PROB	3.514	n/a	n/a	-999	0	3	[6, 8, 5]	19	0	1	0	n/a	n/a	0.0	0	0	0	FR2	0	R1031M
419.642	2.751	406216	PROB	2.731	n/a	n/a	-999	0	3	[9, 2, 1]	13	0	1	0	n/a	n/a	0.0	0	0	0	FR2	0	R1031M
422.393	3.951	407592	PROB	3.924	n/a	n/a	-999	0	3	[6, 2, 5]	13	0	1	0	n/a	n/a	0.0	0	0	0	FR2	0	R1031M
426.344	2.849	409567	PROB	2.828	n/a	n/a	-999	0	3	[4, 5, 1]	10	0	1	0	n/a	n/a	0.0	0	0	0	FR2	0	R1031M
429.193	2.534	410991	PROB	2.499	n/a	n/a	-999	0	3	[4, 3, 4]	11	0	1	0	n/a	n/a	0.0	0	0	0	FR2	0	R1031M
431.727	2.902	412258	PROB	2.902	n/a	n/a	-999	0	3	[2, 4, 4]	10	0	1	0	n/a	n/a	0.0	0	0	0	FR2	0	R1031M
434.629	0.016	413709	STOP	n/a	n/a	n/a	-999	0	3	[-999, -999, -999]	n/a	0	1	0	n/a	n/a	0.0	0	0	0	FR2	0	R1031M
434.645	1.184	413717	DISTRACT_END	n/a	n/a	n/a	-999	0	3	[0, 0, 0]	n/a	0	1	0	n/a	n/a	0.0	0	0	0	FR2	0	R1031M
435.829	1.635	414309	REC_START	n/a	n/a	n/a	-999	0	3	[0, 0, 0]	n/a	0	1	0	n/a	n/a	0.0	0	0	0	FR2	0	R1031M
437.464	28.377	415126	REC_WORD	1.635	n/a	NAIL	1	1	3	[0, 0, 0]	n/a	0	1	0	n/a	n/a	0.0	0	0	0	FR2	0	R1031M
465.841	4.243	429313	REC_END	n/a	n/a	n/a	-999	0	3	[0, 0, 0]	n/a	0	1	0	n/a	n/a	0.0	0	0	0	FR2	0	R1031M
470.084	10.0	431435	COUNTDOWN_START	n/a	n/a	n/a	-999	0	4	[0, 0, 0]	n/a	0	0	0	n/a	n/a	0.0	0	0	0	FR2	0	R1031M
470.085	10.427	431435	TRIAL	n/a	n/a	n/a	-999	0	4	[0, 0, 0]	n/a	0	0	0	n/a	n/a	0.0	0	0	0	FR2	0	R1031M
480.512	0.009	436648	COUNTDOWN_END	n/a	n/a	n/a	-999	0	4	[0, 0, 0]	n/a	0	0	0	n/a	n/a	0.0	0	0	0	FR2	0	R1031M
480.521	1.6	436653	ORIENT	n/a	n/a	n/a	-999	0	4	[0, 0, 0]	n/a	0	0	0	n/a	n/a	0.0	0	0	0	FR2	0	R1031M
483.037	1.6	437910	WORD	n/a	wordpools/wordpool_EN.txt	RAKE	1	1	4	[0, 0, 0]	n/a	0	0	0	n/a	n/a	0.0	0	0	0	FR2	0	R1031M
485.555	1.6	439169	WORD	n/a	wordpools/wordpool_EN.txt	TEETH	2	1	4	[0, 0, 0]	n/a	0	0	0	n/a	n/a	0.0	0	0	0	FR2	0	R1031M
488.154	1.6	440469	WORD	n/a	wordpools/wordpool_EN.txt	CROWN	3	0	4	[0, 0, 0]	n/a	0	0	0	n/a	n/a	0.0	0	0	0	FR2	0	R1031M
490.772	1.6	441778	WORD	n/a	wordpools/wordpool_EN.txt	BEAR	4	0	4	[0, 0, 0]	n/a	0	0	0	n/a	n/a	0.0	0	0	0	FR2	0	R1031M
493.373	1.6	443078	WORD	n/a	wordpools/wordpool_EN.txt	FISH	5	0	4	[0, 0, 0]	n/a	0	0	0	n/a	n/a	0.0	0	0	0	FR2	0	R1031M
495.939	1.6	444361	WORD	n/a	wordpools/wordpool_EN.txt	BIRD	6	0	4	[0, 0, 0]	n/a	0	0	0	n/a	n/a	0.0	0	0	0	FR2	0	R1031M
498.491	1.6	445637	WORD	n/a	wordpools/wordpool_EN.txt	DUCK	7	0	4	[0, 0, 0]	n/a	0	0	0	n/a	n/a	0.0	0	0	0	FR2	0	R1031M
500.957	1.6	446869	WORD	n/a	wordpools/wordpool_EN.txt	SHRIMP	8	1	4	[0, 0, 0]	n/a	0	0	0	n/a	n/a	0.0	0	0	0	FR2	0	R1031M
503.409	1.6	448095	WORD	n/a	wordpools/wordpool_EN.txt	DEER	9	0	4	[0, 0, 0]	n/a	0	0	0	n/a	n/a	0.0	0	0	0	FR2	0	R1031M
505.975	1.6	449378	WORD	n/a	wordpools/wordpool_EN.txt	FRUIT	10	0	4	[0, 0, 0]	n/a	0	0	0	n/a	n/a	0.0	0	0	0	FR2	0	R1031M
508.426	1.6	450604	WORD	n/a	wordpools/wordpool_EN.txt	RIB	11	0	4	[0, 0, 0]	n/a	0	0	0	n/a	n/a	0.0	0	0	0	FR2	0	R1031M
510.909	1.6	451845	WORD	n/a	wordpools/wordpool_EN.txt	WORM	12	0	4	[0, 0, 0]	n/a	0	0	0	n/a	n/a	0.0	0	0	0	FR2	0	R1031M
512.527	0.001	452654	DISTRACT_START	n/a	n/a	n/a	-999	0	4	[0, 0, 0]	n/a	0	0	0	n/a	n/a	0.0	0	0	0	FR2	0	R1031M
512.528	0.016	452654	START	n/a	n/a	n/a	-999	0	4	[-999, -999, -999]	n/a	0	0	0	n/a	n/a	0.0	0	0	0	FR2	0	R1031M
512.544	3.416	452662	PROB	3.396	n/a	n/a	-999	0	4	[9, 3, 1]	13	0	0	0	n/a	n/a	0.0	0	0	0	FR2	0	R1031M
515.96	3.051	454370	PROB	3.02	n/a	n/a	-999	0	4	[9, 1, 4]	14	0	0	0	n/a	n/a	0.0	0	0	0	FR2	0	R1031M
519.011	2.651	455896	PROB	2.626	n/a	n/a	-999	0	4	[8, 9, 4]	21	0	0	0	n/a	n/a	0.0	0	0	0	FR2	0	R1031M
521.662	2.684	457221	PROB	2.663	n/a	n/a	-999	0	4	[9, 8, 2]	19	0	0	0	n/a	n/a	0.0	0	0	0	FR2	0	R1031M
524.346	4.267	458563	PROB	4.235	n/a	n/a	-999	0	4	[7, 9, 8]	24	0	0	0	n/a	n/a	0.0	0	0	0	FR2	0	R1031M
528.613	3.051	460696	PROB	3.024	n/a	n/a	-999	0	4	[4, 5, 6]	15	0	0	0	n/a	n/a	0.0	0	0	0	FR2	0	R1031M
531.664	3.132	462221	PROB	3.132	n/a	n/a	-999	0	4	[6, 5, 9]	20	0	0	0	n/a	n/a	0.0	0	0	0	FR2	0	R1031M
534.796	0.017	463787	STOP	n/a	n/a	n/a	-999	0	4	[-999, -999, -999]	n/a	0	0	0	n/a	n/a	0.0	0	0	0	FR2	0	R1031M
534.813	1.118	463796	DISTRACT_END	n/a	n/a	n/a	-999	0	4	[0, 0, 0]	n/a	0	0	0	n/a	n/a	0.0	0	0	0	FR2	0	R1031M
535.931	5.798	464355	REC_START	n/a	n/a	n/a	-999	0	4	[0, 0, 0]	n/a	0	0	0	n/a	n/a	0.0	0	0	0	FR2	0	R1031M
541.729	1.374	467253	REC_WORD	5.798	n/a	RAKE	1	1	4	[0, 0, 0]	n/a	0	0	0	n/a	n/a	0.0	0	0	0	FR2	0	R1031M
543.103	5.347	467940	REC_WORD	7.172	n/a	TEETH	2	1	4	[0, 0, 0]	n/a	0	0	0	n/a	n/a	0.0	0	0	0	FR2	0	R1031M
548.45	17.497	470614	REC_WORD	12.519	n/a	SHRIMP	8	1	4	[0, 0, 0]	n/a	0	0	0	n/a	n/a	0.0	0	0	0	FR2	0	R1031M
565.947	6.174	479361	REC_END	n/a	n/a	n/a	-999	0	4	[0, 0, 0]	n/a	0	0	0	n/a	n/a	0.0	0	0	0	FR2	0	R1031M
572.121	0.0	482448	TRIAL	n/a	n/a	n/a	-999	0	5	[0, 0, 0]	n/a	0	1	0	n/a	n/a	0.0	0	0	0	FR2	0	R1031M
572.121	10.0	482448	COUNTDOWN_START	n/a	n/a	n/a	-999	0	5	[0, 0, 0]	n/a	0	1	0	n/a	n/a	0.0	0	0	0	FR2	0	R1031M
582.549	0.008	487661	COUNTDOWN_END	n/a	n/a	n/a	-999	0	5	[0, 0, 0]	n/a	0	1	0	n/a	n/a	0.0	0	0	0	FR2	0	R1031M
582.557	1.6	487665	ORIENT	n/a	n/a	n/a	-999	0	5	[0, 0, 0]	n/a	0	1	0	n/a	n/a	0.0	0	0	0	FR2	0	R1031M
584.99	1.6	488882	WORD	n/a	wordpools/wordpool_EN.txt	PHONE	1	0	5	[0, 0, 0]	n/a	0	1	0	n/a	n/a	0.0	0	0	0	FR2	0	R1031M
587.358	1.6	490066	WORD	n/a	wordpools/wordpool_EN.txt	TOAST	2	0	5	[0, 0, 0]	n/a	0	1	0	n/a	n/a	0.0	0	0	0	FR2	0	R1031M
589.683	4.6	491228	STIM_ON	n/a	n/a	n/a	-999	0	5	[0, 0, 0]	n/a	1	1	4600	RTD5	RTD6	1500.0	50	230	300	FR2	0	R1031M
589.891	1.6	491332	WORD	n/a	wordpools/wordpool_EN.txt	TANK	3	0	5	[0, 0, 0]	n/a	1	1	4600	RTD5	RTD6	1500.0	50	230	300	FR2	0	R1031M
592.442	1.6	492607	WORD	n/a	wordpools/wordpool_EN.txt	PEA	4	0	5	[0, 0, 0]	n/a	1	1	4600	RTD5	RTD6	1500.0	50	230	300	FR2	0	R1031M
594.875	1.6	493824	WORD	n/a	wordpools/wordpool_EN.txt	CHAIR	5	0	5	[0, 0, 0]	n/a	0	1	0	n/a	n/a	0.0	0	0	0	FR2	0	R1031M
597.41	1.6	495091	WORD	n/a	wordpools/wordpool_EN.txt	BEAN	6	0	5	[0, 0, 0]	n/a	0	1	0	n/a	n/a	0.0	0	0	0	FR2	0	R1031M
599.804	4.6	496288	STIM_ON	n/a	n/a	n/a	-999	0	5	[0, 0, 0]	n/a	1	1	4600	RTD5	RTD6	1500.0	50	230	300	FR2	0	R1031M
600.009	1.6	496390	WORD	n/a	wordpools/wordpool_EN.txt	POOL	7	0	5	[0, 0, 0]	n/a	1	1	4600	RTD5	RTD6	1500.0	50	230	300	FR2	0	R1031M
602.394	1.6	497583	WORD	n/a	wordpools/wordpool_EN.txt	YARD	8	0	5	[0, 0, 0]	n/a	1	1	4600	RTD5	RTD6	1500.0	50	230	300	FR2	0	R1031M
604.894	1.6	498833	WORD	n/a	wordpools/wordpool_EN.txt	MUG	9	0	5	[0, 0, 0]	n/a	0	1	0	n/a	n/a	0.0	0	0	0	FR2	0	R1031M
607.328	1.6	500049	WORD	n/a	wordpools/wordpool_EN.txt	MAIL	10	0	5	[0, 0, 0]	n/a	0	1	0	n/a	n/a	0.0	0	0	0	FR2	0	R1031M
609.588	4.6	501179	STIM_ON	n/a	n/a	n/a	-999	0	5	[0, 0, 0]	n/a	1	1	4600	RTD5	RTD6	1500.0	50	230	300	FR2	0	R1031M
609.795	1.6	501283	WORD	n/a	wordpools/wordpool_EN.txt	FAN	11	0	5	[0, 0, 0]	n/a	1	1	4600	RTD5	RTD6	1500.0	50	230	300	FR2	0	R1031M
612.195	1.6	502483	WORD	n/a	wordpools/wordpool_EN.txt	DIME	12	0	5	[0, 0, 0]	n/a	1	1	4600	RTD5	RTD6	1500.0	50	230	300	FR2	0	R1031M
613.812	0.001	503291	DISTRACT_START	n/a	n/a	n/a	-999	0	5	[0, 0, 0]	n/a	1	1	4600	RTD5	RTD6	1500.0	50	230	300	FR2	0	R1031M
613.813	0.016	503292	START	n/a	n/a	n/a	-999	0	5	[-999, -999, -999]	n/a	0	1	0	n/a	n/a	0.0	0	0	0	FR2	0	R1031M
613.829	3.251	503300	PROB	3.223	n/a	n/a	-999	0	5	[6, 1, 6]	13	0	1	0	n/a	n/a	0.0	0	0	0	FR2	0	R1031M
617.08	3.634	504925	PROB	3.612	n/a	n/a	-999	0	5	[8, 8, 9]	25	0	1	0	n/a	n/a	0.0	0	0	0	FR2	0	R1031M
620.714	2.784	506742	PROB	2.763	n/a	n/a	-999	0	5	[6, 9, 3]	18	0	1	0	n/a	n/a	0.0	0	0	0	FR2	0	R1031M
623.498	3.084	508134	PROB	3.051	n/a	n/a	-999	0	5	[3, 3, 7]	13	0	1	0	n/a	n/a	0.0	0	0	0	FR2	0	R1031M
626.582	3.333	509675	PROB	3.31	n/a	n/a	-999	0	5	[8, 8, 7]	23	0	1	0	n/a	n/a	0.0	0	0	0	FR2	0	R1031M
629.915	3.084	511342	PROB	3.049	n/a	n/a	-999	0	5	[9, 3, 9]	21	0	1	0	n/a	n/a	0.0	0	0	0	FR2	0	R1031M
632.999	2.773	512884	PROB	2.773	n/a	n/a	-999	0	5	[8, 4, 8]	20	0	1	0	n/a	n/a	0.0	0	0	0	FR2	0	R1031M
635.772	0.011	514270	STOP	n/a	n/a	n/a	-999	0	5	[-999, -999, -999]	n/a	0	1	0	n/a	n/a	0.0	0	0	0	FR2	0	R1031M
635.783	1.118	514276	DISTRACT_END	n/a	n/a	n/a	-999	0	5	[0, 0, 0]	n/a	0	1	0	n/a	n/a	0.0	0	0	0	FR2	0	R1031M
636.901	30.0	514834	REC_START	n/a	n/a	n/a	-999	0	5	[0, 0, 0]	n/a	0	1	0	n/a	n/a	0.0	0	0	0	FR2	0	R1031M
666.901	0.011	529833	REC_WORD_VV	30.0	n/a	<>	-999	0	5	[0, 0, 0]	n/a	0	1	0	n/a	n/a	0.0	0	0	0	FR2	0	R1031M
666.912	20.432	529838	REC_END	n/a	n/a	n/a	-999	0	5	[0, 0, 0]	n/a	0	1	0	n/a	n/a	0.0	0	0	0	FR2	0	R1031M
687.344	0.0	540053	TRIAL	n/a	n/a	n/a	-999	0	6	[0, 0, 0]	n/a	0	1	0	n/a	n/a	0.0	0	0	0	FR2	0	R1031M
687.344	10.0	540053	COUNTDOWN_START	n/a	n/a	n/a	-999	0	6	[0, 0, 0]	n/a	0	1	0	n/a	n/a	0.0	0	0	0	FR2	0	R1031M
697.772	0.007	545267	COUNTDOWN_END	n/a	n/a	n/a	-999	0	6	[0, 0, 0]	n/a	0	1	0	n/a	n/a	0.0	0	0	0	FR2	0	R1031M
697.779	1.6	545270	ORIENT	n/a	n/a	n/a	-999	0	6	[0, 0, 0]	n/a	0	1	0	n/a	n/a	0.0	0	0	0	FR2	0	R1031M
700.297	1.6	546529	WORD	n/a	wordpools/wordpool_EN.txt	FOG	1	1	6	[0, 0, 0]	n/a	0	1	0	n/a	n/a	0.0	0	0	0	FR2	0	R1031M
702.863	1.6	547812	WORD	n/a	wordpools/wordpool_EN.txt	BED	2	0	6	[0, 0, 0]	n/a	0	1	0	n/a	n/a	0.0	0	0	0	FR2	0	R1031M
705.071	4.6	548916	STIM_ON	n/a	n/a	n/a	-999	0	6	[0, 0, 0]	n/a	1	1	4600	RTD5	RTD6	1500.0	50	230	300	FR2	0	R1031M
705.281	1.6	549021	WORD	n/a	wordpools/wordpool_EN.txt	GEESE	3	0	6	[0, 0, 0]	n/a	1	1	4600	RTD5	RTD6	1500.0	50	230	300	FR2	0	R1031M
707.897	1.6	550329	WORD	n/a	wordpools/wordpool_EN.txt	COW	4	0	6	[0, 0, 0]	n/a	1	1	4600	RTD5	RTD6	1500.0	50	230	300	FR2	0	R1031M
710.415	1.6	551588	WORD	n/a	wordpools/wordpool_EN.txt	BOARD	5	0	6	[0, 0, 0]	n/a	0	1	0	n/a	n/a	0.0	0	0	0	FR2	0	R1031M
712.948	1.6	552854	WORD	n/a	wordpools/wordpool_EN.txt	BRIDGE	6	0	6	[0, 0, 0]	n/a	0	1	0	n/a	n/a	0.0	0	0	0	FR2	0	R1031M
715.218	4.6	553989	STIM_ON	n/a	n/a	n/a	-999	0	6	[0, 0, 0]	n/a	1	1	4600	RTD5	RTD6	1500.0	50	230	300	FR2	0	R1031M
715.433	1.6	554096	WORD	n/a	wordpools/wordpool_EN.txt	BOAT	7	0	6	[0, 0, 0]	n/a	1	1	4600	RTD5	RTD6	1500.0	50	230	300	FR2	0	R1031M
717.932	1.6	555346	WORD	n/a	wordpools/wordpool_EN.txt	SLUSH	8	0	6	[0, 0, 0]	n/a	1	1	4600	RTD5	RTD6	1500.0	50	230	300	FR2	0	R1031M
720.501	1.6	556630	WORD	n/a	wordpools/wordpool_EN.txt	VAN	9	0	6	[0, 0, 0]	n/a	0	1	0	n/a	n/a	0.0	0	0	0	FR2	0	R1031M
723.067	1.6	557913	WORD	n/a	wordpools/wordpool_EN.txt	GUARD	10	0	6	[0, 0, 0]	n/a	0	1	0	n/a	n/a	0.0	0	0	0	FR2	0	R1031M
725.395	4.6	559077	STIM_ON	n/a	n/a	n/a	-999	0	6	[0, 0, 0]	n/a	1	1	4600	RTD5	RTD6	1500.0	50	230	300	FR2	0	R1031M
725.602	1.6	559180	WORD	n/a	wordpools/wordpool_EN.txt	LAMB	11	0	6	[0, 0, 0]	n/a	1	1	4600	RTD5	RTD6	1500.0	50	230	300	FR2	0	R1031M
728.018	1.6	560388	WORD	n/a	wordpools/wordpool_EN.txt	STOVE	12	0	6	[0, 0, 0]	n/a	1	1	4600	RTD5	RTD6	1500.0	50	230	300	FR2	0	R1031M
729.636	0.001	561197	DISTRACT_START	n/a	n/a	n/a	-999	0	6	[0, 0, 0]	n/a	1	1	4600	RTD5	RTD6	1500.0	50	230	300	FR2	0	R1031M
729.637	0.015	561198	START	n/a	n/a	n/a	-999	0	6	[-999, -999, -999]	n/a	0	1	0	n/a	n/a	0.0	0	0	0	FR2	0	R1031M
729.652	3.483	561205	PROB	3.456	n/a	n/a	-999	0	6	[5, 8, 8]	21	0	1	0	n/a	n/a	0.0	0	0	0	FR2	0	R1031M
733.135	2.884	562946	PROB	2.861	n/a	n/a	-999	0	6	[7, 6, 8]	21	0	1	0	n/a	n/a	0.0	0	0	0	FR2	0	R1031M
736.019	2.967	564388	PROB	2.937	n/a	n/a	-999	0	6	[4, 7, 4]	15	0	1	0	n/a	n/a	0.0	0	0	0	FR2	0	R1031M
738.986	2.984	565872	PROB	2.954	n/a	n/a	-999	0	6	[8, 3, 1]	12	0	1	0	n/a	n/a	0.0	0	0	0	FR2	0	R1031M
741.97	2.851	567364	PROB	2.826	n/a	n/a	-999	0	6	[2, 7, 1]	10	0	1	0	n/a	n/a	0.0	0	0	0	FR2	0	R1031M
744.821	2.501	568789	PROB	2.48	n/a	n/a	-999	0	6	[6, 6, 1]	13	0	1	0	n/a	n/a	0.0	0	0	0	FR2	0	R1031M
747.322	2.578	570039	PROB	2.578	n/a	n/a	-999	0	6	[5, 3, 5]	13	0	1	0	n/a	n/a	0.0	0	0	0	FR2	0	R1031M
749.9	0.005	571328	STOP	n/a	n/a	n/a	-999	0	6	[-999, -999, -999]	n/a	0	1	0	n/a	n/a	0.0	0	0	0	FR2	0	R1031M
749.905	1.035	571331	DISTRACT_END	n/a	n/a	n/a	-999	0	6	[0, 0, 0]	n/a	0	1	0	n/a	n/a	0.0	0	0	0	FR2	0	R1031M
750.94	1.778	571848	REC_START	n/a	n/a	n/a	-999	0	6	[0, 0, 0]	n/a	0	1	0	n/a	n/a	0.0	0	0	0	FR2	0	R1031M
752.718	28.232	572737	REC_WORD	1.778	n/a	FOG	1	1	6	[0, 0, 0]	n/a	0	1	0	n/a	n/a	0.0	0	0	0	FR2	0	R1031M
780.95	3.045	586851	REC_END	n/a	n/a	n/a	-999	0	6	[0, 0, 0]	n/a	0	1	0	n/a	n/a	0.0	0	0	0	FR2	0	R1031M
783.995	0.0	588374	TRIAL	n/a	n/a	n/a	-999	0	7	[0, 0, 0]	n/a	0	1	0	n/a	n/a	0.0	0	0	0	FR2	0	R1031M
783.995	10.0	588374	COUNTDOWN_START	n/a	n/a	n/a	-999	0	7	[0, 0, 0]	n/a	0	1	0	n/a	n/a	0.0	0	0	0	FR2	0	R1031M
794.423	0.009	593587	COUNTDOWN_END	n/a	n/a	n/a	-999	0	7	[0, 0, 0]	n/a	0	1	0	n/a	n/a	0.0	0	0	0	FR2	0	R1031M
794.432	1.6	593592	ORIENT	n/a	n/a	n/a	-999	0	7	[0, 0, 0]	n/a	0	1	0	n/a	n/a	0.0	0	0	0	FR2	0	R1031M
796.817	4.6	594784	STIM_ON	n/a	n/a	n/a	-999	0	7	[0, 0, 0]	n/a	1	1	4600	RTD5	RTD6	1500.0	50	230	300	FR2	0	R1031M
797.031	1.6	594891	WORD	n/a	wordpools/wordpool_EN.txt	JEEP	1	0	7	[0, 0, 0]	n/a	1	1	4600	RTD5	RTD6	1500.0	50	230	300	FR2	0	R1031M
799.616	1.6	596184	WORD	n/a	wordpools/wordpool_EN.txt	SHIRT	2	0	7	[0, 0, 0]	n/a	1	1	4600	RTD5	RTD6	1500.0	50	230	300	FR2	0	R1031M
802.132	1.6	597441	WORD	n/a	wordpools/wordpool_EN.txt	CAKE	3	0	7	[0, 0, 0]	n/a	0	1	0	n/a	n/a	0.0	0	0	0	FR2	0	R1031M
804.55	1.6	598650	WORD	n/a	wordpools/wordpool_EN.txt	PARK	4	0	7	[0, 0, 0]	n/a	0	1	0	n/a	n/a	0.0	0	0	0	FR2	0	R1031M
806.853	4.6	599802	STIM_ON	n/a	n/a	n/a	-999	0	7	[0, 0, 0]	n/a	1	1	4600	RTD5	RTD6	1500.0	50	230	300	FR2	0	R1031M
807.066	1.6	599908	WORD	n/a	wordpools/wordpool_EN.txt	PIG	5	0	7	[0, 0, 0]	n/a	1	1	4600	RTD5	RTD6	1500.0	50	230	300	FR2	0	R1031M
809.651	1.6	601200	WORD	n/a	wordpools/wordpool_EN.txt	PLANE	6	0	7	[0, 0, 0]	n/a	1	1	4600	RTD5	RTD6	1500.0	50	230	300	FR2	0	R1031M
812.167	1.6	602458	WORD	n/a	wordpools/wordpool_EN.txt	MAT	7	0	7	[0, 0, 0]	n/a	0	1	0	n/a	n/a	0.0	0	0	0	FR2	0	R1031M
814.734	1.6	603742	WORD	n/a	wordpools/wordpool_EN.txt	TRAIN	8	0	7	[0, 0, 0]	n/a	0	1	0	n/a	n/a	0.0	0	0	0	FR2	0	R1031M
816.942	4.6	604846	STIM_ON	n/a	n/a	n/a	-999	0	7	[0, 0, 0]	n/a	1	1	4600	RTD5	RTD6	1500.0	50	230	300	FR2	0	R1031M
817.152	1.6	604951	WORD	n/a	wordpools/wordpool_EN.txt	STEAK	9	0	7	[0, 0, 0]	n/a	1	1	4600	RTD5	RTD6	1500.0	50	230	300	FR2	0	R1031M
819.636	1.6	606192	WORD	n/a	wordpools/wordpool_EN.txt	PURSE	10	0	7	[0, 0, 0]	n/a	1	1	4600	RTD5	RTD6	1500.0	50	230	300	FR2	0	R1031M
822.236	1.6	607492	WORD	n/a	wordpools/wordpool_EN.txt	FUDGE	11	0	7	[0, 0, 0]	n/a	0	1	0	n/a	n/a	0.0	0	0	0	FR2	0	R1031M
824.736	1.6	608742	WORD	n/a	wordpools/wordpool_EN.txt	PET	12	0	7	[0, 0, 0]	n/a	0	1	0	n/a	n/a	0.0	0	0	0	FR2	0	R1031M
826.338	0.001	609543	DISTRACT_START	n/a	n/a	n/a	-999	0	7	[0, 0, 0]	n/a	0	1	0	n/a	n/a	0.0	0	0	0	FR2	0	R1031M
826.339	0.015	609544	START	n/a	n/a	n/a	-999	0	7	[-999, -999, -999]	n/a	0	1	0	n/a	n/a	0.0	0	0	0	FR2	0	R1031M
826.354	7.351	609551	PROB	7.323	n/a	n/a	-999	0	7	[8, 5, 8]	21	0	1	0	n/a	n/a	0.0	0	0	0	FR2	0	R1031M
833.705	3.184	613226	PROB	3.147	n/a	n/a	-999	0	7	[4, 1, 4]	8	0	1	0	n/a	n/a	0.0	0	0	0	FR2	0	R1031M
836.889	4.418	614818	PROB	4.388	n/a	n/a	-999	0	7	[1, 2, 6]	9	0	1	0	n/a	n/a	0.0	0	0	0	FR2	0	R1031M
841.307	4.018	617027	PROB	3.986	n/a	n/a	-999	0	7	[8, 8, 6]	22	0	1	0	n/a	n/a	0.0	0	0	0	FR2	0	R1031M
845.325	2.575	619036	PROB	2.575	n/a	n/a	-999	0	7	[8, 9, 4]	21	0	1	0	n/a	n/a	0.0	0	0	0	FR2	0	R1031M
847.9	0.008	620323	STOP	n/a	n/a	n/a	-999	0	7	[-999, -999, -999]	n/a	0	1	0	n/a	n/a	0.0	0	0	0	FR2	0	R1031M
847.908	1.167	620327	DISTRACT_END	n/a	n/a	n/a	-999	0	7	[0, 0, 0]	n/a	0	1	0	n/a	n/a	0.0	0	0	0	FR2	0	R1031M
849.075	29.994	620910	REC_START	n/a	n/a	n/a	-999	0	7	[0, 0, 0]	n/a	0	1	0	n/a	n/a	0.0	0	0	0	FR2	0	R1031M
879.069	0.017	635906	REC_WORD_VV	29.994	n/a	<>	-999	0	7	[0, 0, 0]	n/a	0	1	0	n/a	n/a	0.0	0	0	0	FR2	0	R1031M
879.086	80.043	635914	REC_END	n/a	n/a	n/a	-999	0	7	[0, 0, 0]	n/a	0	1	0	n/a	n/a	0.0	0	0	0	FR2	0	R1031M
959.129	0.0	675932	TRIAL	n/a	n/a	n/a	-999	0	8	[0, 0, 0]	n/a	0	0	0	n/a	n/a	0.0	0	0	0	FR2	0	R1031M
959.129	10.0	675932	COUNTDOWN_START	n/a	n/a	n/a	-999	0	8	[0, 0, 0]	n/a	0	0	0	n/a	n/a	0.0	0	0	0	FR2	0	R1031M
969.557	0.008	681145	COUNTDOWN_END	n/a	n/a	n/a	-999	0	8	[0, 0, 0]	n/a	0	0	0	n/a	n/a	0.0	0	0	0	FR2	0	R1031M
969.565	1.6	681149	ORIENT	n/a	n/a	n/a	-999	0	8	[0, 0, 0]	n/a	0	0	0	n/a	n/a	0.0	0	0	0	FR2	0	R1031M
972.132	1.6	682433	WORD	n/a	wordpools/wordpool_EN.txt	FOX	1	1	8	[0, 0, 0]	n/a	0	0	0	n/a	n/a	0.0	0	0	0	FR2	0	R1031M
974.715	1.6	683724	WORD	n/a	wordpools/wordpool_EN.txt	TENT	2	1	8	[0, 0, 0]	n/a	0	0	0	n/a	n/a	0.0	0	0	0	FR2	0	R1031M
977.3	1.6	685016	WORD	n/a	wordpools/wordpool_EN.txt	PIE	3	1	8	[0, 0, 0]	n/a	0	0	0	n/a	n/a	0.0	0	0	0	FR2	0	R1031M
979.8	1.6	686266	WORD	n/a	wordpools/wordpool_EN.txt	CAVE	4	1	8	[0, 0, 0]	n/a	0	0	0	n/a	n/a	0.0	0	0	0	FR2	0	R1031M
982.184	1.6	687458	WORD	n/a	wordpools/wordpool_EN.txt	SOUP	5	0	8	[0, 0, 0]	n/a	0	0	0	n/a	n/a	0.0	0	0	0	FR2	0	R1031M
984.767	1.6	688749	WORD	n/a	wordpools/wordpool_EN.txt	STICK	6	0	8	[0, 0, 0]	n/a	0	0	0	n/a	n/a	0.0	0	0	0	FR2	0	R1031M
987.352	1.6	690042	WORD	n/a	wordpools/wordpool_EN.txt	MOOSE	7	0	8	[0, 0, 0]	n/a	0	0	0	n/a	n/a	0.0	0	0	0	FR2	0	R1031M
989.802	1.6	691267	WORD	n/a	wordpools/wordpool_EN.txt	SKUNK	8	0	8	[0, 0, 0]	n/a	0	0	0	n/a	n/a	0.0	0	0	0	FR2	0	R1031M
992.403	1.6	692567	WORD	n/a	wordpools/wordpool_EN.txt	SEAL	9	0	8	[0, 0, 0]	n/a	0	0	0	n/a	n/a	0.0	0	0	0	FR2	0	R1031M
994.853	1.6	693792	WORD	n/a	wordpools/wordpool_EN.txt	BREAD	10	0	8	[0, 0, 0]	n/a	0	0	0	n/a	n/a	0.0	0	0	0	FR2	0	R1031M
997.237	1.6	694984	WORD	n/a	wordpools/wordpool_EN.txt	GATE	11	0	8	[0, 0, 0]	n/a	0	0	0	n/a	n/a	0.0	0	0	0	FR2	0	R1031M
999.804	1.6	696267	WORD	n/a	wordpools/wordpool_EN.txt	TAIL	12	0	8	[0, 0, 0]	n/a	0	0	0	n/a	n/a	0.0	0	0	0	FR2	0	R1031M
1001.422	0.0	697076	DISTRACT_START	n/a	n/a	n/a	-999	0	8	[0, 0, 0]	n/a	0	0	0	n/a	n/a	0.0	0	0	0	FR2	0	R1031M
1001.422	0.016	697076	START	n/a	n/a	n/a	-999	0	8	[-999, -999, -999]	n/a	0	0	0	n/a	n/a	0.0	0	0	0	FR2	0	R1031M
1001.438	3.868	697084	PROB	3.839	n/a	n/a	-999	0	8	[9, 4, 3]	16	0	0	0	n/a	n/a	0.0	0	0	0	FR2	0	R1031M
1005.306	2.566	699018	PROB	2.538	n/a	n/a	-999	0	8	[2, 9, 1]	12	0	0	0	n/a	n/a	0.0	0	0	0	FR2	0	R1031M
1007.872	3.234	700301	PROB	3.212	n/a	n/a	-999	0	8	[5, 6, 5]	16	0	0	0	n/a	n/a	0.0	0	0	0	FR2	0	R1031M
1011.106	2.285	701918	PROB	2.259	n/a	n/a	-999	0	8	[1, 3, 1]	5	0	0	0	n/a	n/a	0.0	0	0	0	FR2	0	R1031M
1013.391	3.167	703060	PROB	3.134	n/a	n/a	-999	0	8	[8, 2, 3]	13	0	0	0	n/a	n/a	0.0	0	0	0	FR2	0	R1031M
1016.558	3.483	704643	PROB	3.454	n/a	n/a	-999	0	8	[8, 1, 4]	13	0	0	0	n/a	n/a	0.0	0	0	0	FR2	0	R1031M
1020.041	2.564	706385	PROB	2.564	n/a	n/a	-999	0	8	[6, 1, 1]	8	0	0	0	n/a	n/a	0.0	0	0	0	FR2	0	R1031M
1022.605	0.004	707666	STOP	n/a	n/a	n/a	-999	0	8	[-999, -999, -999]	n/a	0	0	0	n/a	n/a	0.0	0	0	0	FR2	0	R1031M
1022.609	1.134	707668	DISTRACT_END	n/a	n/a	n/a	-999	0	8	[0, 0, 0]	n/a	0	0	0	n/a	n/a	0.0	0	0	0	FR2	0	R1031M
1023.743	1.753	708235	REC_START	n/a	n/a	n/a	-999	0	8	[0, 0, 0]	n/a	0	0	0	n/a	n/a	0.0	0	0	0	FR2	0	R1031M
1025.496	2.023	709112	REC_WORD	1.753	n/a	FOX	1	1	8	[0, 0, 0]	n/a	0	0	0	n/a	n/a	0.0	0	0	0	FR2	0	R1031M
1027.519	3.726	710123	REC_WORD	3.776	n/a	PIE	3	1	8	[0, 0, 0]	n/a	0	0	0	n/a	n/a	0.0	0	0	0	FR2	0	R1031M
1031.245	0.662	711986	REC_WORD	7.502	n/a	TENT	2	1	8	[0, 0, 0]	n/a	0	0	0	n/a	n/a	0.0	0	0	0	FR2	0	R1031M
1031.907	21.847	712317	REC_WORD	8.164	n/a	CAVE	4	1	8	[0, 0, 0]	n/a	0	0	0	n/a	n/a	0.0	0	0	0	FR2	0	R1031M
1053.754	106.131	723239	REC_END	n/a	n/a	n/a	-999	0	8	[0, 0, 0]	n/a	0	0	0	n/a	n/a	0.0	0	0	0	FR2	0	R1031M
1159.885	0.0	776299	TRIAL	n/a	n/a	n/a	-999	0	9	[0, 0, 0]	n/a	0	1	0	n/a	n/a	0.0	0	0	0	FR2	0	R1031M
1159.885	10.0	776299	COUNTDOWN_START	n/a	n/a	n/a	-999	0	9	[0, 0, 0]	n/a	0	1	0	n/a	n/a	0.0	0	0	0	FR2	0	R1031M
1170.313	0.008	781513	COUNTDOWN_END	n/a	n/a	n/a	-999	0	9	[0, 0, 0]	n/a	0	1	0	n/a	n/a	0.0	0	0	0	FR2	0	R1031M
1170.321	1.6	781517	ORIENT	n/a	n/a	n/a	-999	0	9	[0, 0, 0]	n/a	0	1	0	n/a	n/a	0.0	0	0	0	FR2	0	R1031M
1172.754	1.6	782733	WORD	n/a	wordpools/wordpool_EN.txt	CAR	1	1	9	[0, 0, 0]	n/a	0	1	0	n/a	n/a	0.0	0	0	0	FR2	0	R1031M
1175.322	1.6	784017	WORD	n/a	wordpools/wordpool_EN.txt	STORE	2	0	9	[0, 0, 0]	n/a	0	1	0	n/a	n/a	0.0	0	0	0	FR2	0	R1031M
1177.711	4.6	785211	STIM_ON	n/a	n/a	n/a	-999	0	9	[0, 0, 0]	n/a	1	1	4600	RTD5	RTD6	1500.0	50	230	300	FR2	0	R1031M
1177.921	1.6	785316	WORD	n/a	wordpools/wordpool_EN.txt	PLANT	3	1	9	[0, 0, 0]	n/a	1	1	4600	RTD5	RTD6	1500.0	50	230	300	FR2	0	R1031M
1180.423	1.6	786567	WORD	n/a	wordpools/wordpool_EN.txt	ROOT	4	0	9	[0, 0, 0]	n/a	1	1	4600	RTD5	RTD6	1500.0	50	230	300	FR2	0	R1031M
1183.039	1.6	787875	WORD	n/a	wordpools/wordpool_EN.txt	FARM	5	0	9	[0, 0, 0]	n/a	0	1	0	n/a	n/a	0.0	0	0	0	FR2	0	R1031M
1185.424	1.6	789068	WORD	n/a	wordpools/wordpool_EN.txt	JUICE	6	0	9	[0, 0, 0]	n/a	0	1	0	n/a	n/a	0.0	0	0	0	FR2	0	R1031M
1187.789	4.6	790250	STIM_ON	n/a	n/a	n/a	-999	0	9	[0, 0, 0]	n/a	1	1	4600	RTD5	RTD6	1500.0	50	230	300	FR2	0	R1031M
1188.007	1.6	790359	WORD	n/a	wordpools/wordpool_EN.txt	STORM	7	0	9	[0, 0, 0]	n/a	1	1	4600	RTD5	RTD6	1500.0	50	230	300	FR2	0	R1031M
1190.458	1.6	791584	WORD	n/a	wordpools/wordpool_EN.txt	SHEEP	8	0	9	[0, 0, 0]	n/a	1	1	4600	RTD5	RTD6	1500.0	50	230	300	FR2	0	R1031M
1192.841	1.6	792776	WORD	n/a	wordpools/wordpool_EN.txt	ICE	9	0	9	[0, 0, 0]	n/a	0	1	0	n/a	n/a	0.0	0	0	0	FR2	0	R1031M
1195.342	1.6	794026	WORD	n/a	wordpools/wordpool_EN.txt	TRASH	10	0	9	[0, 0, 0]	n/a	0	1	0	n/a	n/a	0.0	0	0	0	FR2	0	R1031M
1197.688	4.6	795199	STIM_ON	n/a	n/a	n/a	-999	0	9	[0, 0, 0]	n/a	1	1	4600	RTD5	RTD6	1500.0	50	230	300	FR2	0	R1031M
1197.892	1.6	795301	WORD	n/a	wordpools/wordpool_EN.txt	CUBE	11	0	9	[0, 0, 0]	n/a	1	1	4600	RTD5	RTD6	1500.0	50	230	300	FR2	0	R1031M
1200.293	1.6	796501	WORD	n/a	wordpools/wordpool_EN.txt	GRAPE	12	0	9	[0, 0, 0]	n/a	1	1	4600	RTD5	RTD6	1500.0	50	230	300	FR2	0	R1031M
1201.909	0.001	797309	DISTRACT_START	n/a	n/a	n/a	-999	0	9	[0, 0, 0]	n/a	1	1	4600	RTD5	RTD6	1500.0	50	230	300	FR2	0	R1031M
1201.91	0.016	797310	START	n/a	n/a	n/a	-999	0	9	[-999, -999, -999]	n/a	0	1	0	n/a	n/a	0.0	0	0	0	FR2	0	R1031M
1201.926	3.735	797318	PROB	3.703	n/a	n/a	-999	0	9	[1, 5, 8]	14	0	1	0	n/a	n/a	0.0	0	0	0	FR2	0	R1031M
1205.661	2.784	799185	PROB	2.752	n/a	n/a	-999	0	9	[9, 3, 2]	14	0	1	0	n/a	n/a	0.0	0	0	0	FR2	0	R1031M
1208.445	2.416	800577	PROB	2.391	n/a	n/a	-999	0	9	[6, 2, 3]	11	0	1	0	n/a	n/a	0.0	0	0	0	FR2	0	R1031M
1210.861	2.468	801785	PROB	2.448	n/a	n/a	-999	0	9	[7, 7, 3]	17	0	1	0	n/a	n/a	0.0	0	0	0	FR2	0	R1031M
1213.329	2.301	803019	PROB	2.268	n/a	n/a	-999	0	9	[6, 5, 1]	12	0	1	0	n/a	n/a	0.0	0	0	0	FR2	0	R1031M
1215.63	2.65	804169	PROB	2.614	n/a	n/a	-999	0	9	[8, 6, 4]	18	0	1	0	n/a	n/a	0.0	0	0	0	FR2	0	R1031M
1218.28	2.583	805494	PROB	2.548	n/a	n/a	-999	0	9	[3, 1, 4]	8	0	1	0	n/a	n/a	0.0	0	0	0	FR2	0	R1031M
1220.863	5.085	806785	PROB	5.085	n/a	n/a	-999	0	9	[1, 6, 8]	15	0	1	0	n/a	n/a	0.0	0	0	0	FR2	0	R1031M
1225.948	0.016	809327	STOP	n/a	n/a	n/a	-999	0	9	[-999, -999, -999]	n/a	0	1	0	n/a	n/a	0.0	0	0	0	FR2	0	R1031M
1225.964	1.151	809335	DISTRACT_END	n/a	n/a	n/a	-999	0	9	[0, 0, 0]	n/a	0	1	0	n/a	n/a	0.0	0	0	0	FR2	0	R1031M
1227.115	1.491	809911	REC_START	n/a	n/a	n/a	-999	0	9	[0, 0, 0]	n/a	0	1	0	n/a	n/a	0.0	0	0	0	FR2	0	R1031M
1228.606	3.52	810656	REC_WORD	1.491	n/a	CAR	1	1	9	[0, 0, 0]	n/a	0	1	0	n/a	n/a	0.0	0	0	0	FR2	0	R1031M
1232.126	25.0	812416	REC_WORD	5.011	n/a	PLANT	3	1	9	[0, 0, 0]	n/a	0	1	0	n/a	n/a	0.0	0	0	0	FR2	0	R1031M
1257.126	10.13	824915	REC_END	n/a	n/a	n/a	-999	0	9	[0, 0, 0]	n/a	0	1	0	n/a	n/a	0.0	0	0	0	FR2	0	R1031M
1267.256	0.0	829979	TRIAL	n/a	n/a	n/a	-999	0	10	[0, 0, 0]	n/a	0	1	0	n/a	n/a	0.0	0	0	0	FR2	0	R1031M
1267.256	10.0	829979	COUNTDOWN_START	n/a	n/a	n/a	-999	0	10	[0, 0, 0]	n/a	0	1	0	n/a	n/a	0.0	0	0	0	FR2	0	R1031M
1277.684	0.007	835193	COUNTDOWN_END	n/a	n/a	n/a	-999	0	10	[0, 0, 0]	n/a	0	1	0	n/a	n/a	0.0	0	0	0	FR2	0	R1031M
1277.691	1.6	835196	ORIENT	n/a	n/a	n/a	-999	0	10	[0, 0, 0]	n/a	0	1	0	n/a	n/a	0.0	0	0	0	FR2	0	R1031M
1280.175	1.6	836438	WORD	n/a	wordpools/wordpool_EN.txt	WOOD	1	0	10	[0, 0, 0]	n/a	0	1	0	n/a	n/a	0.0	0	0	0	FR2	0	R1031M
1282.609	1.6	837655	WORD	n/a	wordpools/wordpool_EN.txt	HAT	2	0	10	[0, 0, 0]	n/a	0	1	0	n/a	n/a	0.0	0	0	0	FR2	0	R1031M
1284.786	4.6	838743	STIM_ON	n/a	n/a	n/a	-999	0	10	[0, 0, 0]	n/a	1	1	4600	RTD5	RTD6	1500.0	50	230	300	FR2	0	R1031M
1284.992	1.6	838846	WORD	n/a	wordpools/wordpool_EN.txt	JET	3	0	10	[0, 0, 0]	n/a	1	1	4600	RTD5	RTD6	1500.0	50	230	300	FR2	0	R1031M
1287.394	1.6	840047	WORD	n/a	wordpools/wordpool_EN.txt	FOAM	4	0	10	[0, 0, 0]	n/a	1	1	4600	RTD5	RTD6	1500.0	50	230	300	FR2	0	R1031M
1289.877	1.6	841289	WORD	n/a	wordpools/wordpool_EN.txt	BAT	5	0	10	[0, 0, 0]	n/a	0	1	0	n/a	n/a	0.0	0	0	0	FR2	0	R1031M
1292.494	1.6	842597	WORD	n/a	wordpools/wordpool_EN.txt	ROOM	6	0	10	[0, 0, 0]	n/a	0	1	0	n/a	n/a	0.0	0	0	0	FR2	0	R1031M
1294.872	4.6	843786	STIM_ON	n/a	n/a	n/a	-999	0	10	[0, 0, 0]	n/a	1	1	4600	RTD5	RTD6	1500.0	50	230	300	FR2	0	R1031M
1295.078	1.6	843889	WORD	n/a	wordpools/wordpool_EN.txt	WING	7	0	10	[0, 0, 0]	n/a	1	1	4600	RTD5	RTD6	1500.0	50	230	300	FR2	0	R1031M
1297.629	1.6	845164	WORD	n/a	wordpools/wordpool_EN.txt	SLIME	8	0	10	[0, 0, 0]	n/a	1	1	4600	RTD5	RTD6	1500.0	50	230	300	FR2	0	R1031M
1300.045	1.6	846372	WORD	n/a	wordpools/wordpool_EN.txt	BOWL	9	0	10	[0, 0, 0]	n/a	0	1	0	n/a	n/a	0.0	0	0	0	FR2	0	R1031M
1302.563	1.6	847631	WORD	n/a	wordpools/wordpool_EN.txt	FUR	10	0	10	[0, 0, 0]	n/a	0	1	0	n/a	n/a	0.0	0	0	0	FR2	0	R1031M
1304.96	4.6	848829	STIM_ON	n/a	n/a	n/a	-999	0	10	[0, 0, 0]	n/a	1	1	4600	RTD5	RTD6	1500.0	50	230	300	FR2	0	R1031M
1305.163	1.6	848931	WORD	n/a	wordpools/wordpool_EN.txt	PIN	11	0	10	[0, 0, 0]	n/a	1	1	4600	RTD5	RTD6	1500.0	50	230	300	FR2	0	R1031M
1307.631	1.6	850165	WORD	n/a	wordpools/wordpool_EN.txt	SPARK	12	1	10	[0, 0, 0]	n/a	1	1	4600	RTD5	RTD6	1500.0	50	230	300	FR2	0	R1031M
1309.247	0.001	850973	DISTRACT_START	n/a	n/a	n/a	-999	0	10	[0, 0, 0]	n/a	1	1	4600	RTD5	RTD6	1500.0	50	230	300	FR2	0	R1031M
1309.248	0.017	850973	START	n/a	n/a	n/a	-999	0	10	[-999, -999, -999]	n/a	0	1	0	n/a	n/a	0.0	0	0	0	FR2	0	R1031M
1309.265	3.599	850982	PROB	3.579	n/a	n/a	-999	0	10	[7, 4, 9]	20	0	1	0	n/a	n/a	0.0	0	0	0	FR2	0	R1031M
1312.864	2.867	852781	PROB	2.844	n/a	n/a	-999	0	10	[9, 4, 5]	18	0	1	0	n/a	n/a	0.0	0	0	0	FR2	0	R1031M
1315.731	2.535	854214	PROB	2.505	n/a	n/a	-999	0	10	[5, 2, 3]	10	0	1	0	n/a	n/a	0.0	0	0	0	FR2	0	R1031M
1318.266	3.55	855482	PROB	3.514	n/a	n/a	-999	0	10	[5, 9, 9]	23	0	1	0	n/a	n/a	0.0	0	0	0	FR2	0	R1031M
1321.816	2.618	857256	PROB	2.589	n/a	n/a	-999	0	10	[3, 2, 8]	13	0	1	0	n/a	n/a	0.0	0	0	0	FR2	0	R1031M
1324.434	2.867	858565	PROB	2.835	n/a	n/a	-999	0	10	[2, 8, 8]	18	0	1	0	n/a	n/a	0.0	0	0	0	FR2	0	R1031M
1327.301	2.679	859999	PROB	2.679	n/a	n/a	-999	0	10	[7, 4, 8]	19	0	1	0	n/a	n/a	0.0	0	0	0	FR2	0	R1031M
1329.98	0.004	861338	STOP	n/a	n/a	n/a	-999	0	10	[-999, -999, -999]	n/a	0	1	0	n/a	n/a	0.0	0	0	0	FR2	0	R1031M
1329.984	1.084	861340	DISTRACT_END	n/a	n/a	n/a	-999	0	10	[0, 0, 0]	n/a	0	1	0	n/a	n/a	0.0	0	0	0	FR2	0	R1031M
1331.068	3.796	861882	REC_START	n/a	n/a	n/a	-999	0	10	[0, 0, 0]	n/a	0	1	0	n/a	n/a	0.0	0	0	0	FR2	0	R1031M
1334.864	3.529	863780	REC_WORD	3.796	n/a	CAR	-999	0	10	[0, 0, 0]	n/a	0	1	0	n/a	n/a	0.0	0	0	0	FR2	0	R1031M
1338.393	22.687	865544	REC_WORD	7.325	n/a	SPARK	12	1	10	[0, 0, 0]	n/a	0	1	0	n/a	n/a	0.0	0	0	0	FR2	0	R1031M
1361.08	97.197	876886	REC_END	n/a	n/a	n/a	-999	0	10	[0, 0, 0]	n/a	0	1	0	n/a	n/a	0.0	0	0	0	FR2	0	R1031M
1458.277	0.0	925480	TRIAL	n/a	n/a	n/a	-999	0	11	[0, 0, 0]	n/a	0	0	0	n/a	n/a	0.0	0	0	0	FR2	0	R1031M
1458.277	10.0	925480	COUNTDOWN_START	n/a	n/a	n/a	-999	0	11	[0, 0, 0]	n/a	0	0	0	n/a	n/a	0.0	0	0	0	FR2	0	R1031M
1468.705	0.006	930693	COUNTDOWN_END	n/a	n/a	n/a	-999	0	11	[0, 0, 0]	n/a	0	0	0	n/a	n/a	0.0	0	0	0	FR2	0	R1031M
1468.711	1.6	930696	ORIENT	n/a	n/a	n/a	-999	0	11	[0, 0, 0]	n/a	0	0	0	n/a	n/a	0.0	0	0	0	FR2	0	R1031M
1471.078	1.6	931880	WORD	n/a	wordpools/wordpool_EN.txt	CHIEF	1	0	11	[0, 0, 0]	n/a	0	0	0	n/a	n/a	0.0	0	0	0	FR2	0	R1031M
1473.663	1.6	933172	WORD	n/a	wordpools/wordpool_EN.txt	SCHOOL	2	0	11	[0, 0, 0]	n/a	0	0	0	n/a	n/a	0.0	0	0	0	FR2	0	R1031M
1476.096	1.6	934388	WORD	n/a	wordpools/wordpool_EN.txt	TRUCK	3	0	11	[0, 0, 0]	n/a	0	0	0	n/a	n/a	0.0	0	0	0	FR2	0	R1031M
1478.614	1.6	935647	WORD	n/a	wordpools/wordpool_EN.txt	SINK	4	0	11	[0, 0, 0]	n/a	0	0	0	n/a	n/a	0.0	0	0	0	FR2	0	R1031M
1481.214	1.6	936947	WORD	n/a	wordpools/wordpool_EN.txt	BADGE	5	0	11	[0, 0, 0]	n/a	0	0	0	n/a	n/a	0.0	0	0	0	FR2	0	R1031M
1483.697	1.6	938189	WORD	n/a	wordpools/wordpool_EN.txt	DRESS	6	0	11	[0, 0, 0]	n/a	0	0	0	n/a	n/a	0.0	0	0	0	FR2	0	R1031M
1486.214	1.6	939447	WORD	n/a	wordpools/wordpool_EN.txt	SPOON	7	0	11	[0, 0, 0]	n/a	0	0	0	n/a	n/a	0.0	0	0	0	FR2	0	R1031M
1488.616	1.6	940648	WORD	n/a	wordpools/wordpool_EN.txt	APE	8	0	11	[0, 0, 0]	n/a	0	0	0	n/a	n/a	0.0	0	0	0	FR2	0	R1031M
1491.015	1.6	941847	WORD	n/a	wordpools/wordpool_EN.txt	DESK	9	1	11	[0, 0, 0]	n/a	0	0	0	n/a	n/a	0.0	0	0	0	FR2	0	R1031M
1493.45	1.6	943065	WORD	n/a	wordpools/wordpool_EN.txt	SEAT	10	0	11	[0, 0, 0]	n/a	0	0	0	n/a	n/a	0.0	0	0	0	FR2	0	R1031M
1495.983	1.6	944331	WORD	n/a	wordpools/wordpool_EN.txt	SMILE	11	0	11	[0, 0, 0]	n/a	0	0	0	n/a	n/a	0.0	0	0	0	FR2	0	R1031M
1498.351	1.6	945515	WORD	n/a	wordpools/wordpool_EN.txt	FLAG	12	0	11	[0, 0, 0]	n/a	0	0	0	n/a	n/a	0.0	0	0	0	FR2	0	R1031M
1499.967	0.001	946323	DISTRACT_START	n/a	n/a	n/a	-999	0	11	[0, 0, 0]	n/a	0	0	0	n/a	n/a	0.0	0	0	0	FR2	0	R1031M
1499.968	0.016	946323	START	n/a	n/a	n/a	-999	0	11	[-999, -999, -999]	n/a	0	0	0	n/a	n/a	0.0	0	0	0	FR2	0	R1031M
1499.984	3.568	946331	PROB	3.533	n/a	n/a	-999	0	11	[8, 2, 7]	17	0	0	0	n/a	n/a	0.0	0	0	0	FR2	0	R1031M
1503.552	2.633	948115	PROB	2.604	n/a	n/a	-999	0	11	[7, 4, 7]	18	0	0	0	n/a	n/a	0.0	0	0	0	FR2	0	R1031M
1506.185	2.634	949431	PROB	2.611	n/a	n/a	-999	0	11	[4, 9, 1]	14	0	0	0	n/a	n/a	0.0	0	0	0	FR2	0	R1031M
1508.819	2.884	950748	PROB	2.858	n/a	n/a	-999	0	11	[4, 7, 3]	14	0	0	0	n/a	n/a	0.0	0	0	0	FR2	0	R1031M
1511.703	2.785	952190	PROB	2.758	n/a	n/a	-999	0	11	[8, 9, 6]	23	0	0	0	n/a	n/a	0.0	0	0	0	FR2	0	R1031M
1514.488	3.699	953582	PROB	3.676	n/a	n/a	-999	0	11	[8, 9, 4]	31	0	0	0	n/a	n/a	0.0	0	0	0	FR2	0	R1031M
1518.187	2.961	955432	PROB	2.961	n/a	n/a	-999	0	11	[1, 7, 1]	9	0	0	0	n/a	n/a	0.0	0	0	0	FR2	0	R1031M
1521.148	0.007	956912	STOP	n/a	n/a	n/a	-999	0	11	[-999, -999, -999]	n/a	0	0	0	n/a	n/a	0.0	0	0	0	FR2	0	R1031M
1521.155	1.135	956916	DISTRACT_END	n/a	n/a	n/a	-999	0	11	[0, 0, 0]	n/a	0	0	0	n/a	n/a	0.0	0	0	0	FR2	0	R1031M
1522.29	3.24	957483	REC_START	n/a	n/a	n/a	-999	0	11	[0, 0, 0]	n/a	0	0	0	n/a	n/a	0.0	0	0	0	FR2	0	R1031M
1525.53	26.771	959103	REC_WORD	3.24	n/a	DESK	9	1	11	[0, 0, 0]	n/a	0	0	0	n/a	n/a	0.0	0	0	0	FR2	0	R1031M
1552.301	17.863	972487	REC_END	n/a	n/a	n/a	-999	0	11	[0, 0, 0]	n/a	0	0	0	n/a	n/a	0.0	0	0	0	FR2	0	R1031M
1570.164	0.0	981418	TRIAL	n/a	n/a	n/a	-999	0	12	[0, 0, 0]	n/a	0	1	0	n/a	n/a	0.0	0	0	0	FR2	0	R1031M
1570.164	10.0	981418	COUNTDOWN_START	n/a	n/a	n/a	-999	0	12	[0, 0, 0]	n/a	0	1	0	n/a	n/a	0.0	0	0	0	FR2	0	R1031M
1580.592	0.009	986631	COUNTDOWN_END	n/a	n/a	n/a	-999	0	12	[0, 0, 0]	n/a	0	1	0	n/a	n/a	0.0	0	0	0	FR2	0	R1031M
1580.601	1.6	986636	ORIENT	n/a	n/a	n/a	-999	0	12	[0, 0, 0]	n/a	0	1	0	n/a	n/a	0.0	0	0	0	FR2	0	R1031M
1583.05	1.6	987860	WORD	n/a	wordpools/wordpool_EN.txt	BOX	1	0	12	[0, 0, 0]	n/a	0	1	0	n/a	n/a	0.0	0	0	0	FR2	0	R1031M
1585.501	1.6	989085	WORD	n/a	wordpools/wordpool_EN.txt	DOOR	2	1	12	[0, 0, 0]	n/a	0	1	0	n/a	n/a	0.0	0	0	0	FR2	0	R1031M
1587.881	4.6	990275	STIM_ON	n/a	n/a	n/a	-999	0	12	[0, 0, 0]	n/a	1	1	4600	RTD5	RTD6	1500.0	50	230	300	FR2	0	R1031M
1588.084	1.6	990377	WORD	n/a	wordpools/wordpool_EN.txt	COUCH	3	0	12	[0, 0, 0]	n/a	1	1	4600	RTD5	RTD6	1500.0	50	230	300	FR2	0	R1031M
1590.552	1.6	991611	WORD	n/a	wordpools/wordpool_EN.txt	SLEEVE	4	0	12	[0, 0, 0]	n/a	1	1	4600	RTD5	RTD6	1500.0	50	230	300	FR2	0	R1031M
1593.019	1.6	992844	WORD	n/a	wordpools/wordpool_EN.txt	PASTE	5	0	12	[0, 0, 0]	n/a	0	1	0	n/a	n/a	0.0	0	0	0	FR2	0	R1031M
1595.42	1.6	994044	WORD	n/a	wordpools/wordpool_EN.txt	CHALK	6	0	12	[0, 0, 0]	n/a	0	1	0	n/a	n/a	0.0	0	0	0	FR2	0	R1031M
1597.799	4.6	995234	STIM_ON	n/a	n/a	n/a	-999	0	12	[0, 0, 0]	n/a	1	1	4600	RTD5	RTD6	1500.0	50	230	300	FR2	0	R1031M
1598.003	1.6	995336	WORD	n/a	wordpools/wordpool_EN.txt	CAGE	7	0	12	[0, 0, 0]	n/a	1	1	4600	RTD5	RTD6	1500.0	50	230	300	FR2	0	R1031M
1600.604	1.6	996636	WORD	n/a	wordpools/wordpool_EN.txt	CUP	8	0	12	[0, 0, 0]	n/a	1	1	4600	RTD5	RTD6	1500.0	50	230	300	FR2	0	R1031M
1603.021	1.6	997844	WORD	n/a	wordpools/wordpool_EN.txt	LEG	9	0	12	[0, 0, 0]	n/a	0	1	0	n/a	n/a	0.0	0	0	0	FR2	0	R1031M
1605.539	1.6	999103	WORD	n/a	wordpools/wordpool_EN.txt	CART	10	0	12	[0, 0, 0]	n/a	0	1	0	n/a	n/a	0.0	0	0	0	FR2	0	R1031M
1607.71	4.6	1000189	STIM_ON	n/a	n/a	n/a	-999	0	12	[0, 0, 0]	n/a	1	1	4600	RTD5	RTD6	1500.0	50	230	300	FR2	0	R1031M
1607.921	1.6	1000294	WORD	n/a	wordpools/wordpool_EN.txt	STOOL	11	0	12	[0, 0, 0]	n/a	1	1	4600	RTD5	RTD6	1500.0	50	230	300	FR2	0	R1031M
1610.456	1.6	1001561	WORD	n/a	wordpools/wordpool_EN.txt	DART	12	0	12	[0, 0, 0]	n/a	1	1	4600	RTD5	RTD6	1500.0	50	230	300	FR2	0	R1031M
1612.072	0.001	1002369	DISTRACT_START	n/a	n/a	n/a	-999	0	12	[0, 0, 0]	n/a	1	1	4600	RTD5	RTD6	1500.0	50	230	300	FR2	0	R1031M
1612.073	0.016	1002370	START	n/a	n/a	n/a	-999	0	12	[-999, -999, -999]	n/a	0	1	0	n/a	n/a	0.0	0	0	0	FR2	0	R1031M
1612.089	3.302	1002378	PROB	3.276	n/a	n/a	-999	0	12	[5, 3, 2]	10	0	1	0	n/a	n/a	0.0	0	0	0	FR2	0	R1031M
1615.391	3.183	1004029	PROB	3.15	n/a	n/a	-999	0	12	[9, 3, 6]	18	0	1	0	n/a	n/a	0.0	0	0	0	FR2	0	R1031M
1618.574	2.6	1005620	PROB	2.566	n/a	n/a	-999	0	12	[5, 3, 1]	9	0	1	0	n/a	n/a	0.0	0	0	0	FR2	0	R1031M
1621.174	3.584	1006920	PROB	3.55	n/a	n/a	-999	0	12	[2, 2, 4]	8	0	1	0	n/a	n/a	0.0	0	0	0	FR2	0	R1031M
1624.758	2.317	1008712	PROB	2.294	n/a	n/a	-999	0	12	[2, 3, 4]	9	0	1	0	n/a	n/a	0.0	0	0	0	FR2	0	R1031M
1627.075	3.001	1009870	PROB	2.969	n/a	n/a	-999	0	12	[8, 3, 4]	15	0	1	0	n/a	n/a	0.0	0	0	0	FR2	0	R1031M
1630.076	3.024	1011370	PROB	3.024	n/a	n/a	-999	0	12	[5, 6, 7]	18	0	1	0	n/a	n/a	0.0	0	0	0	FR2	0	R1031M
1633.1	0.009	1012882	STOP	n/a	n/a	n/a	-999	0	12	[-999, -999, -999]	n/a	0	1	0	n/a	n/a	0.0	0	0	0	FR2	0	R1031M
1633.109	1.085	1012887	DISTRACT_END	n/a	n/a	n/a	-999	0	12	[0, 0, 0]	n/a	0	1	0	n/a	n/a	0.0	0	0	0	FR2	0	R1031M
1634.194	3.097	1013429	REC_START	n/a	n/a	n/a	-999	0	12	[0, 0, 0]	n/a	0	1	0	n/a	n/a	0.0	0	0	0	FR2	0	R1031M
1637.291	5.641	1014978	REC_WORD	3.097	n/a	DOOR	2	1	12	[0, 0, 0]	n/a	0	1	0	n/a	n/a	0.0	0	0	0	FR2	0	R1031M
1642.932	21.273	1017798	REC_WORD	8.738	n/a	SINK	-999	0	12	[0, 0, 0]	n/a	0	1	0	n/a	n/a	0.0	0	0	0	FR2	0	R1031M
1664.205	2.595	1028433	REC_END	n/a	n/a	n/a	-999	0	12	[0, 0, 0]	n/a	0	1	0	n/a	n/a	0.0	0	0	0	FR2	0	R1031M
1666.8	0.0	1029731	TRIAL	n/a	n/a	n/a	-999	0	13	[0, 0, 0]	n/a	0	1	0	n/a	n/a	0.0	0	0	0	FR2	0	R1031M
1666.8	10.0	1029731	COUNTDOWN_START	n/a	n/a	n/a	-999	0	13	[0, 0, 0]	n/a	0	1	0	n/a	n/a	0.0	0	0	0	FR2	0	R1031M
1677.228	0.007	1034944	COUNTDOWN_END	n/a	n/a	n/a	-999	0	13	[0, 0, 0]	n/a	0	1	0	n/a	n/a	0.0	0	0	0	FR2	0	R1031M
1677.235	1.6	1034948	ORIENT	n/a	n/a	n/a	-999	0	13	[0, 0, 0]	n/a	0	1	0	n/a	n/a	0.0	0	0	0	FR2	0	R1031M
1679.487	4.6	1036073	STIM_ON	n/a	n/a	n/a	-999	0	13	[0, 0, 0]	n/a	1	1	4600	RTD5	RTD6	1500.0	50	230	300	FR2	0	R1031M
1679.702	1.6	1036181	WORD	n/a	wordpools/wordpool_EN.txt	CASH	1	0	13	[0, 0, 0]	n/a	1	1	4600	RTD5	RTD6	1500.0	50	230	300	FR2	0	R1031M
1682.219	1.6	1037439	WORD	n/a	wordpools/wordpool_EN.txt	TOOTH	2	0	13	[0, 0, 0]	n/a	1	1	4600	RTD5	RTD6	1500.0	50	230	300	FR2	0	R1031M
1684.786	1.6	1038723	WORD	n/a	wordpools/wordpool_EN.txt	SPONGE	3	0	13	[0, 0, 0]	n/a	0	1	0	n/a	n/a	0.0	0	0	0	FR2	0	R1031M
1687.354	1.6	1040006	WORD	n/a	wordpools/wordpool_EN.txt	WORLD	4	0	13	[0, 0, 0]	n/a	0	1	0	n/a	n/a	0.0	0	0	0	FR2	0	R1031M
1689.554	4.6	1041106	STIM_ON	n/a	n/a	n/a	-999	0	13	[0, 0, 0]	n/a	1	1	4600	RTD5	RTD6	1500.0	50	230	300	FR2	0	R1031M
1689.771	1.6	1041215	WORD	n/a	wordpools/wordpool_EN.txt	SEED	5	0	13	[0, 0, 0]	n/a	1	1	4600	RTD5	RTD6	1500.0	50	230	300	FR2	0	R1031M
1692.305	1.6	1042482	WORD	n/a	wordpools/wordpool_EN.txt	BRUSH	6	0	13	[0, 0, 0]	n/a	1	1	4600	RTD5	RTD6	1500.0	50	230	300	FR2	0	R1031M
1694.822	1.6	1043740	WORD	n/a	wordpools/wordpool_EN.txt	BANK	7	0	13	[0, 0, 0]	n/a	0	1	0	n/a	n/a	0.0	0	0	0	FR2	0	R1031M
1697.356	1.6	1045007	WORD	n/a	wordpools/wordpool_EN.txt	ANT	8	0	13	[0, 0, 0]	n/a	0	1	0	n/a	n/a	0.0	0	0	0	FR2	0	R1031M
1699.675	4.6	1046166	STIM_ON	n/a	n/a	n/a	-999	0	13	[0, 0, 0]	n/a	1	1	4600	RTD5	RTD6	1500.0	50	230	300	FR2	0	R1031M
1699.889	1.6	1046273	WORD	n/a	wordpools/wordpool_EN.txt	LEAF	9	0	13	[0, 0, 0]	n/a	1	1	4600	RTD5	RTD6	1500.0	50	230	300	FR2	0	R1031M
1702.357	1.6	1047507	WORD	n/a	wordpools/wordpool_EN.txt	BRANCH	10	0	13	[0, 0, 0]	n/a	1	1	4600	RTD5	RTD6	1500.0	50	230	300	FR2	0	R1031M
1704.957	1.6	1048807	WORD	n/a	wordpools/wordpool_EN.txt	CORD	11	0	13	[0, 0, 0]	n/a	0	1	0	n/a	n/a	0.0	0	0	0	FR2	0	R1031M
1707.458	1.6	1050057	WORD	n/a	wordpools/wordpool_EN.txt	STEM	12	0	13	[0, 0, 0]	n/a	0	1	0	n/a	n/a	0.0	0	0	0	FR2	0	R1031M
1709.074	0.001	1050865	DISTRACT_START	n/a	n/a	n/a	-999	0	13	[0, 0, 0]	n/a	0	1	0	n/a	n/a	0.0	0	0	0	FR2	0	R1031M
1709.075	0.016	1050866	START	n/a	n/a	n/a	-999	0	13	[-999, -999, -999]	n/a	0	1	0	n/a	n/a	0.0	0	0	0	FR2	0	R1031M
1709.091	3.667	1050874	PROB	3.641	n/a	n/a	-999	0	13	[2, 5, 1]	8	0	1	0	n/a	n/a	0.0	0	0	0	FR2	0	R1031M
1712.758	2.951	1052707	PROB	2.919	n/a	n/a	-999	0	13	[4, 8, 5]	17	0	1	0	n/a	n/a	0.0	0	0	0	FR2	0	R1031M
1715.709	2.885	1054183	PROB	2.864	n/a	n/a	-999	0	13	[6, 6, 7]	19	0	1	0	n/a	n/a	0.0	0	0	0	FR2	0	R1031M
1718.594	4.751	1055625	PROB	4.723	n/a	n/a	-999	0	13	[1, 5, 9]	15	0	1	0	n/a	n/a	0.0	0	0	0	FR2	0	R1031M
1723.345	3.333	1058000	PROB	3.3	n/a	n/a	-999	0	13	[3, 6, 6]	15	0	1	0	n/a	n/a	0.0	0	0	0	FR2	0	R1031M
1726.678	2.903	1059666	PROB	2.903	n/a	n/a	-999	0	13	[2, 6, 5]	13	0	1	0	n/a	n/a	0.0	0	0	0	FR2	0	R1031M
1729.581	0.015	1061118	STOP	n/a	n/a	n/a	-999	0	13	[-999, -999, -999]	n/a	0	1	0	n/a	n/a	0.0	0	0	0	FR2	0	R1031M
1729.596	1.083	1061125	DISTRACT_END	n/a	n/a	n/a	-999	0	13	[0, 0, 0]	n/a	0	1	0	n/a	n/a	0.0	0	0	0	FR2	0	R1031M
1730.679	20.779	1061667	REC_START	n/a	n/a	n/a	-999	0	13	[0, 0, 0]	n/a	0	1	0	n/a	n/a	0.0	0	0	0	FR2	0	R1031M
1751.458	9.236	1072055	REC_WORD	20.779	n/a	PET	-999	0	13	[0, 0, 0]	n/a	0	1	0	n/a	n/a	0.0	0	0	0	FR2	0	R1031M
1760.694	4.441	1076673	REC_END	n/a	n/a	n/a	-999	0	13	[0, 0, 0]	n/a	0	1	0	n/a	n/a	0.0	0	0	0	FR2	0	R1031M
1765.135	10.0	1078893	COUNTDOWN_START	n/a	n/a	n/a	-999	0	14	[0, 0, 0]	n/a	0	1	0	n/a	n/a	0.0	0	0	0	FR2	0	R1031M
1765.136	10.427	1078893	TRIAL	n/a	n/a	n/a	-999	0	14	[0, 0, 0]	n/a	0	1	0	n/a	n/a	0.0	0	0	0	FR2	0	R1031M
1775.563	0.009	1084106	COUNTDOWN_END	n/a	n/a	n/a	-999	0	14	[0, 0, 0]	n/a	0	1	0	n/a	n/a	0.0	0	0	0	FR2	0	R1031M
1775.572	1.6	1084111	ORIENT	n/a	n/a	n/a	-999	0	14	[0, 0, 0]	n/a	0	1	0	n/a	n/a	0.0	0	0	0	FR2	0	R1031M
1777.888	4.6	1085269	STIM_ON	n/a	n/a	n/a	-999	0	14	[0, 0, 0]	n/a	1	1	4600	RTD5	RTD6	1500.0	50	230	300	FR2	0	R1031M
1778.104	1.6	1085377	WORD	n/a	wordpools/wordpool_EN.txt	PIT	1	0	14	[0, 0, 0]	n/a	1	1	4600	RTD5	RTD6	1500.0	50	230	300	FR2	0	R1031M
1780.673	1.6	1086661	WORD	n/a	wordpools/wordpool_EN.txt	HILL	2	0	14	[0, 0, 0]	n/a	1	1	4600	RTD5	RTD6	1500.0	50	230	300	FR2	0	R1031M
1783.29	1.6	1087970	WORD	n/a	wordpools/wordpool_EN.txt	BROOM	3	0	14	[0, 0, 0]	n/a	0	1	0	n/a	n/a	0.0	0	0	0	FR2	0	R1031M
1785.823	1.6	1089236	WORD	n/a	wordpools/wordpool_EN.txt	ARK	4	0	14	[0, 0, 0]	n/a	0	1	0	n/a	n/a	0.0	0	0	0	FR2	0	R1031M
1788.153	4.6	1090401	STIM_ON	n/a	n/a	n/a	-999	0	14	[0, 0, 0]	n/a	1	1	4600	RTD5	RTD6	1500.0	50	230	300	FR2	0	R1031M
1788.357	1.6	1090503	WORD	n/a	wordpools/wordpool_EN.txt	STRAW	5	0	14	[0, 0, 0]	n/a	1	1	4600	RTD5	RTD6	1500.0	50	230	300	FR2	0	R1031M
1790.857	1.6	1091753	WORD	n/a	wordpools/wordpool_EN.txt	STONE	6	0	14	[0, 0, 0]	n/a	1	1	4600	RTD5	RTD6	1500.0	50	230	300	FR2	0	R1031M
1793.458	1.6	1093053	WORD	n/a	wordpools/wordpool_EN.txt	TREE	7	0	14	[0, 0, 0]	n/a	0	1	0	n/a	n/a	0.0	0	0	0	FR2	0	R1031M
1796.008	1.6	1094328	WORD	n/a	wordpools/wordpool_EN.txt	SNOW	8	0	14	[0, 0, 0]	n/a	0	1	0	n/a	n/a	0.0	0	0	0	FR2	0	R1031M
1798.423	4.6	1095535	STIM_ON	n/a	n/a	n/a	-999	0	14	[0, 0, 0]	n/a	1	1	4600	RTD5	RTD6	1500.0	50	230	300	FR2	0	R1031M
1798.626	1.6	1095637	WORD	n/a	wordpools/wordpool_EN.txt	OAK	9	0	14	[0, 0, 0]	n/a	1	1	4600	RTD5	RTD6	1500.0	50	230	300	FR2	0	R1031M
1801.126	1.6	1096887	WORD	n/a	wordpools/wordpool_EN.txt	FACE	10	0	14	[0, 0, 0]	n/a	1	1	4600	RTD5	RTD6	1500.0	50	230	300	FR2	0	R1031M
1803.56	1.6	1098103	WORD	n/a	wordpools/wordpool_EN.txt	NEST	11	0	14	[0, 0, 0]	n/a	0	1	0	n/a	n/a	0.0	0	0	0	FR2	0	R1031M
1806.043	1.6	1099345	WORD	n/a	wordpools/wordpool_EN.txt	LAWN	12	0	14	[0, 0, 0]	n/a	0	1	0	n/a	n/a	0.0	0	0	0	FR2	0	R1031M
1807.644	0.001	1100145	DISTRACT_START	n/a	n/a	n/a	-999	0	14	[0, 0, 0]	n/a	0	1	0	n/a	n/a	0.0	0	0	0	FR2	0	R1031M
1807.645	0.016	1100146	START	n/a	n/a	n/a	-999	0	14	[-999, -999, -999]	n/a	0	1	0	n/a	n/a	0.0	0	0	0	FR2	0	R1031M
1807.661	3.45	1100154	PROB	3.415	n/a	n/a	-999	0	14	[8, 6, 7]	21	0	1	0	n/a	n/a	0.0	0	0	0	FR2	0	R1031M
1811.111	2.85	1101879	PROB	2.821	n/a	n/a	-999	0	14	[6, 8, 8]	22	0	1	0	n/a	n/a	0.0	0	0	0	FR2	0	R1031M
1813.961	2.851	1103303	PROB	2.819	n/a	n/a	-999	0	14	[8, 5, 5]	18	0	1	0	n/a	n/a	0.0	0	0	0	FR2	0	R1031M
1816.812	2.518	1104729	PROB	2.489	n/a	n/a	-999	0	14	[5, 5, 7]	17	0	1	0	n/a	n/a	0.0	0	0	0	FR2	0	R1031M
1819.33	3.134	1105988	PROB	3.099	n/a	n/a	-999	0	14	[8, 3, 4]	15	0	1	0	n/a	n/a	0.0	0	0	0	FR2	0	R1031M
1822.464	2.666	1107554	PROB	2.636	n/a	n/a	-999	0	14	[8, 1, 2]	11	0	1	0	n/a	n/a	0.0	0	0	0	FR2	0	R1031M
1825.13	2.986	1108887	PROB	2.986	n/a	n/a	-999	0	14	[5, 4, 8]	17	0	1	0	n/a	n/a	0.0	0	0	0	FR2	0	R1031M
1828.116	0.015	1110380	STOP	n/a	n/a	n/a	-999	0	14	[-999, -999, -999]	n/a	0	1	0	n/a	n/a	0.0	0	0	0	FR2	0	R1031M
1828.131	1.21	1110388	DISTRACT_END	n/a	n/a	n/a	-999	0	14	[0, 0, 0]	n/a	0	1	0	n/a	n/a	0.0	0	0	0	FR2	0	R1031M
1829.341	29.988	1110993	REC_START	n/a	n/a	n/a	-999	0	14	[0, 0, 0]	n/a	0	1	0	n/a	n/a	0.0	0	0	0	FR2	0	R1031M
1859.329	0.015	1125985	REC_WORD_VV	29.988	n/a	<>	-999	0	14	[0, 0, 0]	n/a	0	1	0	n/a	n/a	0.0	0	0	0	FR2	0	R1031M
1859.344	32.566	1125993	REC_END	n/a	n/a	n/a	-999	0	14	[0, 0, 0]	n/a	0	1	0	n/a	n/a	0.0	0	0	0	FR2	0	R1031M
1891.91	0.0	1142274	TRIAL	n/a	n/a	n/a	-999	0	15	[0, 0, 0]	n/a	0	1	0	n/a	n/a	0.0	0	0	0	FR2	0	R1031M
1891.91	10.0	1142274	COUNTDOWN_START	n/a	n/a	n/a	-999	0	15	[0, 0, 0]	n/a	0	1	0	n/a	n/a	0.0	0	0	0	FR2	0	R1031M
1902.338	0.008	1147487	COUNTDOWN_END	n/a	n/a	n/a	-999	0	15	[0, 0, 0]	n/a	0	1	0	n/a	n/a	0.0	0	0	0	FR2	0	R1031M
1902.346	1.6	1147491	ORIENT	n/a	n/a	n/a	-999	0	15	[0, 0, 0]	n/a	0	1	0	n/a	n/a	0.0	0	0	0	FR2	0	R1031M
1904.639	4.6	1148638	STIM_ON	n/a	n/a	n/a	-999	0	15	[0, 0, 0]	n/a	1	1	4600	RTD5	RTD6	1500.0	50	230	300	FR2	0	R1031M
1904.846	1.6	1148741	WORD	n/a	wordpools/wordpool_EN.txt	ARM	1	1	15	[0, 0, 0]	n/a	1	1	4600	RTD5	RTD6	1500.0	50	230	300	FR2	0	R1031M
1907.229	1.6	1149933	WORD	n/a	wordpools/wordpool_EN.txt	VASE	2	1	15	[0, 0, 0]	n/a	1	1	4600	RTD5	RTD6	1500.0	50	230	300	FR2	0	R1031M
1909.747	1.6	1151191	WORD	n/a	wordpools/wordpool_EN.txt	TRAY	3	1	15	[0, 0, 0]	n/a	0	1	0	n/a	n/a	0.0	0	0	0	FR2	0	R1031M
1912.315	1.6	1152475	WORD	n/a	wordpools/wordpool_EN.txt	BAG	4	1	15	[0, 0, 0]	n/a	0	1	0	n/a	n/a	0.0	0	0	0	FR2	0	R1031M
1914.541	4.6	1153588	STIM_ON	n/a	n/a	n/a	-999	0	15	[0, 0, 0]	n/a	1	1	4600	RTD5	RTD6	1500.0	50	230	300	FR2	0	R1031M
1914.748	1.6	1153692	WORD	n/a	wordpools/wordpool_EN.txt	DOLL	5	0	15	[0, 0, 0]	n/a	1	1	4600	RTD5	RTD6	1500.0	50	230	300	FR2	0	R1031M
1917.282	1.6	1154959	WORD	n/a	wordpools/wordpool_EN.txt	BALL	6	0	15	[0, 0, 0]	n/a	1	1	4600	RTD5	RTD6	1500.0	50	230	300	FR2	0	R1031M
1919.666	1.6	1156150	WORD	n/a	wordpools/wordpool_EN.txt	SOCK	7	0	15	[0, 0, 0]	n/a	0	1	0	n/a	n/a	0.0	0	0	0	FR2	0	R1031M
1922.132	1.6	1157383	WORD	n/a	wordpools/wordpool_EN.txt	PEAR	8	0	15	[0, 0, 0]	n/a	0	1	0	n/a	n/a	0.0	0	0	0	FR2	0	R1031M
1924.313	4.6	1158474	STIM_ON	n/a	n/a	n/a	-999	0	15	[0, 0, 0]	n/a	1	1	4600	RTD5	RTD6	1500.0	50	230	300	FR2	0	R1031M
1924.517	1.6	1158576	WORD	n/a	wordpools/wordpool_EN.txt	FOOT	9	0	15	[0, 0, 0]	n/a	1	1	4600	RTD5	RTD6	1500.0	50	230	300	FR2	0	R1031M
1926.917	1.6	1159776	WORD	n/a	wordpools/wordpool_EN.txt	CANE	10	0	15	[0, 0, 0]	n/a	1	1	4600	RTD5	RTD6	1500.0	50	230	300	FR2	0	R1031M
1929.485	1.6	1161059	WORD	n/a	wordpools/wordpool_EN.txt	STRING	11	0	15	[0, 0, 0]	n/a	0	1	0	n/a	n/a	0.0	0	0	0	FR2	0	R1031M
1931.884	1.6	1162259	WORD	n/a	wordpools/wordpool_EN.txt	OAR	12	0	15	[0, 0, 0]	n/a	0	1	0	n/a	n/a	0.0	0	0	0	FR2	0	R1031M
1933.485	0.001	1163059	DISTRACT_START	n/a	n/a	n/a	-999	0	15	[0, 0, 0]	n/a	0	1	0	n/a	n/a	0.0	0	0	0	FR2	0	R1031M
1933.486	0.016	1163060	START	n/a	n/a	n/a	-999	0	15	[-999, -999, -999]	n/a	0	1	0	n/a	n/a	0.0	0	0	0	FR2	0	R1031M
1933.502	6.434	1163068	PROB	6.406	n/a	n/a	-999	0	15	[9, 5, 3]	17	0	1	0	n/a	n/a	0.0	0	0	0	FR2	0	R1031M
1939.936	2.75	1166284	PROB	2.717	n/a	n/a	-999	0	15	[5, 3, 2]	10	0	1	0	n/a	n/a	0.0	0	0	0	FR2	0	R1031M
1942.686	2.902	1167659	PROB	2.871	n/a	n/a	-999	0	15	[4, 6, 6]	16	0	1	0	n/a	n/a	0.0	0	0	0	FR2	0	R1031M
1945.588	3.067	1169110	PROB	3.033	n/a	n/a	-999	0	15	[7, 1, 8]	16	0	1	0	n/a	n/a	0.0	0	0	0	FR2	0	R1031M
1948.655	3.233	1170643	PROB	3.197	n/a	n/a	-999	0	15	[3, 6, 4]	13	0	1	0	n/a	n/a	0.0	0	0	0	FR2	0	R1031M
1951.888	2.725	1172260	PROB	2.725	n/a	n/a	-999	0	15	[4, 2, 7]	13	0	1	0	n/a	n/a	0.0	0	0	0	FR2	0	R1031M
1954.613	0.01	1173622	STOP	n/a	n/a	n/a	-999	0	15	[-999, -999, -999]	n/a	0	1	0	n/a	n/a	0.0	0	0	0	FR2	0	R1031M
1954.623	1.051	1173627	DISTRACT_END	n/a	n/a	n/a	-999	0	15	[0, 0, 0]	n/a	0	1	0	n/a	n/a	0.0	0	0	0	FR2	0	R1031M
1955.674	0.904	1174153	REC_START	n/a	n/a	n/a	-999	0	15	[0, 0, 0]	n/a	0	1	0	n/a	n/a	0.0	0	0	0	FR2	0	R1031M
1956.578	0.44	1174605	REC_WORD	0.904	n/a	ARM	1	1	15	[0, 0, 0]	n/a	0	1	0	n/a	n/a	0.0	0	0	0	FR2	0	R1031M
1957.018	0.705	1174825	REC_WORD	1.344	n/a	VASE	2	1	15	[0, 0, 0]	n/a	0	1	0	n/a	n/a	0.0	0	0	0	FR2	0	R1031M
1957.723	0.674	1175177	REC_WORD	2.049	n/a	TRAY	3	1	15	[0, 0, 0]	n/a	0	1	0	n/a	n/a	0.0	0	0	0	FR2	0	R1031M
1958.397	27.287	1175514	REC_WORD	2.723	n/a	BAG	4	1	15	[0, 0, 0]	n/a	0	1	0	n/a	n/a	0.0	0	0	0	FR2	0	R1031M
1985.684	10.68	1189156	REC_END	n/a	n/a	n/a	-999	0	15	[0, 0, 0]	n/a	0	1	0	n/a	n/a	0.0	0	0	0	FR2	0	R1031M
1996.364	10.0	1194495	COUNTDOWN_START	n/a	n/a	n/a	-999	0	16	[0, 0, 0]	n/a	0	1	0	n/a	n/a	0.0	0	0	0	FR2	0	R1031M
1996.365	10.427	1194496	TRIAL	n/a	n/a	n/a	-999	0	16	[0, 0, 0]	n/a	0	1	0	n/a	n/a	0.0	0	0	0	FR2	0	R1031M
2006.792	0.007	1199709	COUNTDOWN_END	n/a	n/a	n/a	-999	0	16	[0, 0, 0]	n/a	0	1	0	n/a	n/a	0.0	0	0	0	FR2	0	R1031M
2006.799	1.6	1199712	ORIENT	n/a	n/a	n/a	-999	0	16	[0, 0, 0]	n/a	0	1	0	n/a	n/a	0.0	0	0	0	FR2	0	R1031M
2009.317	1.6	1200971	WORD	n/a	wordpools/wordpool_EN.txt	HOUSE	1	1	16	[0, 0, 0]	n/a	0	1	0	n/a	n/a	0.0	0	0	0	FR2	0	R1031M
2011.766	1.6	1202196	WORD	n/a	wordpools/wordpool_EN.txt	MAZE	2	1	16	[0, 0, 0]	n/a	0	1	0	n/a	n/a	0.0	0	0	0	FR2	0	R1031M
2014.085	4.6	1203355	STIM_ON	n/a	n/a	n/a	-999	0	16	[0, 0, 0]	n/a	1	1	4600	RTD5	RTD6	1500.0	50	230	300	FR2	0	R1031M
2014.301	1.6	1203463	WORD	n/a	wordpools/wordpool_EN.txt	BATH	3	1	16	[0, 0, 0]	n/a	1	1	4600	RTD5	RTD6	1500.0	50	230	300	FR2	0	R1031M
2016.784	1.6	1204704	WORD	n/a	wordpools/wordpool_EN.txt	SNAKE	4	1	16	[0, 0, 0]	n/a	1	1	4600	RTD5	RTD6	1500.0	50	230	300	FR2	0	R1031M
2019.235	1.6	1205930	WORD	n/a	wordpools/wordpool_EN.txt	DITCH	5	0	16	[0, 0, 0]	n/a	0	1	0	n/a	n/a	0.0	0	0	0	FR2	0	R1031M
2021.785	1.6	1207205	WORD	n/a	wordpools/wordpool_EN.txt	STREET	6	0	16	[0, 0, 0]	n/a	0	1	0	n/a	n/a	0.0	0	0	0	FR2	0	R1031M
2024.034	4.6	1208329	STIM_ON	n/a	n/a	n/a	-999	0	16	[0, 0, 0]	n/a	1	1	4600	RTD5	RTD6	1500.0	50	230	300	FR2	0	R1031M
2024.235	1.6	1208430	WORD	n/a	wordpools/wordpool_EN.txt	MUD	7	0	16	[0, 0, 0]	n/a	1	1	4600	RTD5	RTD6	1500.0	50	230	300	FR2	0	R1031M
2026.637	1.6	1209630	WORD	n/a	wordpools/wordpool_EN.txt	SWAMP	8	0	16	[0, 0, 0]	n/a	1	1	4600	RTD5	RTD6	1500.0	50	230	300	FR2	0	R1031M
2029.12	1.6	1210872	WORD	n/a	wordpools/wordpool_EN.txt	VINE	9	0	16	[0, 0, 0]	n/a	0	1	0	n/a	n/a	0.0	0	0	0	FR2	0	R1031M
2031.505	1.6	1212064	WORD	n/a	wordpools/wordpool_EN.txt	SKY	10	0	16	[0, 0, 0]	n/a	0	1	0	n/a	n/a	0.0	0	0	0	FR2	0	R1031M
2033.814	4.6	1213219	STIM_ON	n/a	n/a	n/a	-999	0	16	[0, 0, 0]	n/a	1	1	4600	RTD5	RTD6	1500.0	50	230	300	FR2	0	R1031M
2034.021	1.6	1213322	WORD	n/a	wordpools/wordpool_EN.txt	EEL	11	0	16	[0, 0, 0]	n/a	1	1	4600	RTD5	RTD6	1500.0	50	230	300	FR2	0	R1031M
2036.489	1.6	1214556	WORD	n/a	wordpools/wordpool_EN.txt	STAIR	12	0	16	[0, 0, 0]	n/a	1	1	4600	RTD5	RTD6	1500.0	50	230	300	FR2	0	R1031M
2038.105	0.001	1215364	DISTRACT_START	n/a	n/a	n/a	-999	0	16	[0, 0, 0]	n/a	1	1	4600	RTD5	RTD6	1500.0	50	230	300	FR2	0	R1031M
2038.106	0.016	1215364	START	n/a	n/a	n/a	-999	0	16	[-999, -999, -999]	n/a	0	1	0	n/a	n/a	0.0	0	0	0	FR2	0	R1031M
2038.122	5.784	1215372	PROB	5.754	n/a	n/a	-999	0	16	[3, 9, 4]	16	0	1	0	n/a	n/a	0.0	0	0	0	FR2	0	R1031M
2043.906	3.951	1218264	PROB	3.922	n/a	n/a	-999	0	16	[8, 8, 2]	18	0	1	0	n/a	n/a	0.0	0	0	0	FR2	0	R1031M
2047.857	2.651	1220239	PROB	2.628	n/a	n/a	-999	0	16	[3, 7, 5]	15	0	1	0	n/a	n/a	0.0	0	0	0	FR2	0	R1031M
2050.508	2.4	1221565	PROB	2.368	n/a	n/a	-999	0	16	[3, 7, 1]	11	0	1	0	n/a	n/a	0.0	0	0	0	FR2	0	R1031M
2052.908	2.635	1222765	PROB	2.609	n/a	n/a	-999	0	16	[2, 3, 6]	11	0	1	0	n/a	n/a	0.0	0	0	0	FR2	0	R1031M
2055.543	2.902	1224082	PROB	2.902	n/a	n/a	-999	0	16	[9, 8, 7]	24	0	1	0	n/a	n/a	0.0	0	0	0	FR2	0	R1031M
2058.445	0.015	1225533	STOP	n/a	n/a	n/a	-999	0	16	[-999, -999, -999]	n/a	0	1	0	n/a	n/a	0.0	0	0	0	FR2	0	R1031M
2058.46	1.201	1225540	DISTRACT_END	n/a	n/a	n/a	-999	0	16	[0, 0, 0]	n/a	0	1	0	n/a	n/a	0.0	0	0	0	FR2	0	R1031M
2059.661	1.337	1226141	REC_START	n/a	n/a	n/a	-999	0	16	[0, 0, 0]	n/a	0	1	0	n/a	n/a	0.0	0	0	0	FR2	0	R1031M
2060.998	1.609	1226809	REC_WORD	1.337	n/a	HOUSE	1	1	16	[0, 0, 0]	n/a	0	1	0	n/a	n/a	0.0	0	0	0	FR2	0	R1031M
2062.607	6.835	1227614	REC_WORD	2.946	n/a	MAZE	2	1	16	[0, 0, 0]	n/a	0	1	0	n/a	n/a	0.0	0	0	0	FR2	0	R1031M
2069.442	3.807	1231031	REC_WORD	9.781	n/a	BATH	3	1	16	[0, 0, 0]	n/a	0	1	0	n/a	n/a	0.0	0	0	0	FR2	0	R1031M
2073.249	16.423	1232934	REC_WORD	13.588	n/a	SNAKE	4	1	16	[0, 0, 0]	n/a	0	1	0	n/a	n/a	0.0	0	0	0	FR2	0	R1031M
2089.672	3.343	1241145	REC_END	n/a	n/a	n/a	-999	0	16	[0, 0, 0]	n/a	0	1	0	n/a	n/a	0.0	0	0	0	FR2	0	R1031M
2093.015	10.0	1242816	COUNTDOWN_START	n/a	n/a	n/a	-999	0	17	[0, 0, 0]	n/a	0	1	0	n/a	n/a	0.0	0	0	0	FR2	0	R1031M
2093.016	10.427	1242816	TRIAL	n/a	n/a	n/a	-999	0	17	[0, 0, 0]	n/a	0	1	0	n/a	n/a	0.0	0	0	0	FR2	0	R1031M
2103.443	0.009	1248029	COUNTDOWN_END	n/a	n/a	n/a	-999	0	17	[0, 0, 0]	n/a	0	1	0	n/a	n/a	0.0	0	0	0	FR2	0	R1031M
2103.452	1.6	1248034	ORIENT	n/a	n/a	n/a	-999	0	17	[0, 0, 0]	n/a	0	1	0	n/a	n/a	0.0	0	0	0	FR2	0	R1031M
2106.051	1.6	1249333	WORD	n/a	wordpools/wordpool_EN.txt	SPEAR	1	1	17	[0, 0, 0]	n/a	0	1	0	n/a	n/a	0.0	0	0	0	FR2	0	R1031M
2108.453	1.6	1250534	WORD	n/a	wordpools/wordpool_EN.txt	HOLE	2	0	17	[0, 0, 0]	n/a	0	1	0	n/a	n/a	0.0	0	0	0	FR2	0	R1031M
2110.767	4.6	1251691	STIM_ON	n/a	n/a	n/a	-999	0	17	[0, 0, 0]	n/a	1	1	4600	RTD5	RTD6	1500.0	50	230	300	FR2	0	R1031M
2110.969	1.6	1251792	WORD	n/a	wordpools/wordpool_EN.txt	BUSH	3	0	17	[0, 0, 0]	n/a	1	1	4600	RTD5	RTD6	1500.0	50	230	300	FR2	0	R1031M
2113.437	1.6	1253026	WORD	n/a	wordpools/wordpool_EN.txt	CHIN	4	1	17	[0, 0, 0]	n/a	1	1	4600	RTD5	RTD6	1500.0	50	230	300	FR2	0	R1031M
2115.87	1.6	1254242	WORD	n/a	wordpools/wordpool_EN.txt	CHEEK	5	1	17	[0, 0, 0]	n/a	0	1	0	n/a	n/a	0.0	0	0	0	FR2	0	R1031M
2118.288	1.6	1255451	WORD	n/a	wordpools/wordpool_EN.txt	PALM	6	0	17	[0, 0, 0]	n/a	0	1	0	n/a	n/a	0.0	0	0	0	FR2	0	R1031M
2120.473	4.6	1256544	STIM_ON	n/a	n/a	n/a	-999	0	17	[0, 0, 0]	n/a	1	1	4600	RTD5	RTD6	1500.0	50	230	300	FR2	0	R1031M
2120.688	1.6	1256651	WORD	n/a	wordpools/wordpool_EN.txt	FLOOR	7	0	17	[0, 0, 0]	n/a	1	1	4600	RTD5	RTD6	1500.0	50	230	300	FR2	0	R1031M
2123.105	1.6	1257859	WORD	n/a	wordpools/wordpool_EN.txt	CONE	8	0	17	[0, 0, 0]	n/a	1	1	4600	RTD5	RTD6	1500.0	50	230	300	FR2	0	R1031M
2125.656	1.6	1259135	WORD	n/a	wordpools/wordpool_EN.txt	LOCK	9	0	17	[0, 0, 0]	n/a	0	1	0	n/a	n/a	0.0	0	0	0	FR2	0	R1031M
2128.172	1.6	1260393	WORD	n/a	wordpools/wordpool_EN.txt	SWORD	10	0	17	[0, 0, 0]	n/a	0	1	0	n/a	n/a	0.0	0	0	0	FR2	0	R1031M
2130.473	4.6	1261543	STIM_ON	n/a	n/a	n/a	-999	0	17	[0, 0, 0]	n/a	1	1	4600	RTD5	RTD6	1500.0	50	230	300	FR2	0	R1031M
2130.689	1.6	1261651	WORD	n/a	wordpools/wordpool_EN.txt	FROG	11	0	17	[0, 0, 0]	n/a	1	1	4600	RTD5	RTD6	1500.0	50	230	300	FR2	0	R1031M
2133.123	1.6	1262868	WORD	n/a	wordpools/wordpool_EN.txt	FLAME	12	0	17	[0, 0, 0]	n/a	1	1	4600	RTD5	RTD6	1500.0	50	230	300	FR2	0	R1031M
2134.74	0.001	1263676	DISTRACT_START	n/a	n/a	n/a	-999	0	17	[0, 0, 0]	n/a	1	1	4600	RTD5	RTD6	1500.0	50	230	300	FR2	0	R1031M
2134.741	0.016	1263677	START	n/a	n/a	n/a	-999	0	17	[-999, -999, -999]	n/a	0	1	0	n/a	n/a	0.0	0	0	0	FR2	0	R1031M
2134.757	3.635	1263685	PROB	3.608	n/a	n/a	-999	0	17	[3, 3, 6]	12	0	1	0	n/a	n/a	0.0	0	0	0	FR2	0	R1031M
2138.392	2.533	1265502	PROB	2.508	n/a	n/a	-999	0	17	[9, 3, 9]	21	0	1	0	n/a	n/a	0.0	0	0	0	FR2	0	R1031M
2140.925	2.485	1266768	PROB	2.464	n/a	n/a	-999	0	17	[8, 4, 1]	13	0	1	0	n/a	n/a	0.0	0	0	0	FR2	0	R1031M
2143.41	3.034	1268011	PROB	3.003	n/a	n/a	-999	0	17	[1, 6, 4]	11	0	1	0	n/a	n/a	0.0	0	0	0	FR2	0	R1031M
2146.444	2.532	1269528	PROB	2.504	n/a	n/a	-999	0	17	[1, 4, 4]	9	0	1	0	n/a	n/a	0.0	0	0	0	FR2	0	R1031M
2148.976	2.768	1270794	PROB	2.74	n/a	n/a	-999	0	17	[4, 5, 1]	10	0	1	0	n/a	n/a	0.0	0	0	0	FR2	0	R1031M
2151.744	2.918	1272177	PROB	2.877	n/a	n/a	-999	0	17	[4, 9, 5]	19	0	1	0	n/a	n/a	0.0	0	0	0	FR2	0	R1031M
2154.662	3.486	1273636	PROB	3.486	n/a	n/a	-999	0	17	[2, 9, 6]	17	0	1	0	n/a	n/a	0.0	0	0	0	FR2	0	R1031M
2158.148	0.014	1275379	STOP	n/a	n/a	n/a	-999	0	17	[-999, -999, -999]	n/a	0	1	0	n/a	n/a	0.0	0	0	0	FR2	0	R1031M
2158.162	1.218	1275386	DISTRACT_END	n/a	n/a	n/a	-999	0	17	[0, 0, 0]	n/a	0	1	0	n/a	n/a	0.0	0	0	0	FR2	0	R1031M
2159.38	1.358	1275995	REC_START	n/a	n/a	n/a	-999	0	17	[0, 0, 0]	n/a	0	1	0	n/a	n/a	0.0	0	0	0	FR2	0	R1031M
2160.738	6.573	1276674	REC_WORD	1.358	n/a	SPEAR	1	1	17	[0, 0, 0]	n/a	0	1	0	n/a	n/a	0.0	0	0	0	FR2	0	R1031M
2167.311	8.065	1279960	REC_WORD	7.931	n/a	CENTER	-999	0	17	[0, 0, 0]	n/a	0	1	0	n/a	n/a	0.0	0	0	0	FR2	0	R1031M
2175.376	1.648	1283992	REC_WORD	15.996	n/a	CHIN	4	1	17	[0, 0, 0]	n/a	0	1	0	n/a	n/a	0.0	0	0	0	FR2	0	R1031M
2177.024	12.366	1284816	REC_WORD	17.644	n/a	CHEEK	5	1	17	[0, 0, 0]	n/a	0	1	0	n/a	n/a	0.0	0	0	0	FR2	0	R1031M
2189.39	11.396	1290998	REC_END	n/a	n/a	n/a	-999	0	17	[0, 0, 0]	n/a	0	1	0	n/a	n/a	0.0	0	0	0	FR2	0	R1031M
2200.786	10.0	1296696	COUNTDOWN_START	n/a	n/a	n/a	-999	0	18	[0, 0, 0]	n/a	0	1	0	n/a	n/a	0.0	0	0	0	FR2	0	R1031M
2200.787	10.427	1296696	TRIAL	n/a	n/a	n/a	-999	0	18	[0, 0, 0]	n/a	0	1	0	n/a	n/a	0.0	0	0	0	FR2	0	R1031M
2211.214	0.008	1301909	COUNTDOWN_END	n/a	n/a	n/a	-999	0	18	[0, 0, 0]	n/a	0	1	0	n/a	n/a	0.0	0	0	0	FR2	0	R1031M
2211.222	1.6	1301913	ORIENT	n/a	n/a	n/a	-999	0	18	[0, 0, 0]	n/a	0	1	0	n/a	n/a	0.0	0	0	0	FR2	0	R1031M
2213.605	4.6	1303105	STIM_ON	n/a	n/a	n/a	-999	0	18	[0, 0, 0]	n/a	1	1	4600	RTD5	RTD6	1500.0	50	230	300	FR2	0	R1031M
2213.822	1.6	1303213	WORD	n/a	wordpools/wordpool_EN.txt	MAP	1	1	18	[0, 0, 0]	n/a	1	1	4600	RTD5	RTD6	1500.0	50	230	300	FR2	0	R1031M
2216.29	1.6	1304447	WORD	n/a	wordpools/wordpool_EN.txt	CORN	2	1	18	[0, 0, 0]	n/a	1	1	4600	RTD5	RTD6	1500.0	50	230	300	FR2	0	R1031M
2218.807	1.6	1305705	WORD	n/a	wordpools/wordpool_EN.txt	ROSE	3	1	18	[0, 0, 0]	n/a	0	1	0	n/a	n/a	0.0	0	0	0	FR2	0	R1031M
2221.291	1.6	1306947	WORD	n/a	wordpools/wordpool_EN.txt	ELF	4	1	18	[0, 0, 0]	n/a	0	1	0	n/a	n/a	0.0	0	0	0	FR2	0	R1031M
2223.603	4.6	1308103	STIM_ON	n/a	n/a	n/a	-999	0	18	[0, 0, 0]	n/a	1	1	4600	RTD5	RTD6	1500.0	50	230	300	FR2	0	R1031M
2223.808	1.6	1308206	WORD	n/a	wordpools/wordpool_EN.txt	CAPE	5	0	18	[0, 0, 0]	n/a	1	1	4600	RTD5	RTD6	1500.0	50	230	300	FR2	0	R1031M
2226.241	1.6	1309422	WORD	n/a	wordpools/wordpool_EN.txt	NET	6	0	18	[0, 0, 0]	n/a	1	1	4600	RTD5	RTD6	1500.0	50	230	300	FR2	0	R1031M
2228.775	1.6	1310689	WORD	n/a	wordpools/wordpool_EN.txt	SEA	7	0	18	[0, 0, 0]	n/a	0	1	0	n/a	n/a	0.0	0	0	0	FR2	0	R1031M
2231.327	1.6	1311965	WORD	n/a	wordpools/wordpool_EN.txt	SHEET	8	0	18	[0, 0, 0]	n/a	0	1	0	n/a	n/a	0.0	0	0	0	FR2	0	R1031M
2233.658	4.6	1313130	STIM_ON	n/a	n/a	n/a	-999	0	18	[0, 0, 0]	n/a	1	1	4600	RTD5	RTD6	1500.0	50	230	300	FR2	0	R1031M
2233.876	1.6	1313239	WORD	n/a	wordpools/wordpool_EN.txt	GOLD	9	0	18	[0, 0, 0]	n/a	1	1	4600	RTD5	RTD6	1500.0	50	230	300	FR2	0	R1031M
2236.428	1.6	1314515	WORD	n/a	wordpools/wordpool_EN.txt	CLAY	10	0	18	[0, 0, 0]	n/a	1	1	4600	RTD5	RTD6	1500.0	50	230	300	FR2	0	R1031M
2238.894	1.6	1315748	WORD	n/a	wordpools/wordpool_EN.txt	PEARL	11	0	18	[0, 0, 0]	n/a	0	1	0	n/a	n/a	0.0	0	0	0	FR2	0	R1031M
2241.462	1.6	1317032	WORD	n/a	wordpools/wordpool_EN.txt	COIN	12	0	18	[0, 0, 0]	n/a	0	1	0	n/a	n/a	0.0	0	0	0	FR2	0	R1031M
2243.078	0.001	1317840	DISTRACT_START	n/a	n/a	n/a	-999	0	18	[0, 0, 0]	n/a	0	1	0	n/a	n/a	0.0	0	0	0	FR2	0	R1031M
2243.079	0.016	1317840	START	n/a	n/a	n/a	-999	0	18	[-999, -999, -999]	n/a	0	1	0	n/a	n/a	0.0	0	0	0	FR2	0	R1031M
2243.095	4.168	1317848	PROB	4.141	n/a	n/a	-999	0	18	[9, 9, 6]	24	0	1	0	n/a	n/a	0.0	0	0	0	FR2	0	R1031M
2247.263	2.866	1319932	PROB	2.837	n/a	n/a	-999	0	18	[1, 1, 4]	6	0	1	0	n/a	n/a	0.0	0	0	0	FR2	0	R1031M
2250.129	2.152	1321365	PROB	2.123	n/a	n/a	-999	0	18	[3, 5, 1]	9	0	1	0	n/a	n/a	0.0	0	0	0	FR2	0	R1031M
2252.281	3.616	1322441	PROB	3.595	n/a	n/a	-999	0	18	[7, 6, 3]	16	0	1	0	n/a	n/a	0.0	0	0	0	FR2	0	R1031M
2255.897	3.101	1324249	PROB	3.075	n/a	n/a	-999	0	18	[7, 2, 1]	10	0	1	0	n/a	n/a	0.0	0	0	0	FR2	0	R1031M
2258.998	2.668	1325799	PROB	2.647	n/a	n/a	-999	0	18	[1, 4, 6]	11	0	1	0	n/a	n/a	0.0	0	0	0	FR2	0	R1031M
2261.666	2.586	1327133	PROB	2.586	n/a	n/a	-999	0	18	[7, 8, 1]	16	0	1	0	n/a	n/a	0.0	0	0	0	FR2	0	R1031M
2264.252	0.015	1328426	STOP	n/a	n/a	n/a	-999	0	18	[-999, -999, -999]	n/a	0	1	0	n/a	n/a	0.0	0	0	0	FR2	0	R1031M
2264.267	1.117	1328433	DISTRACT_END	n/a	n/a	n/a	-999	0	18	[0, 0, 0]	n/a	0	1	0	n/a	n/a	0.0	0	0	0	FR2	0	R1031M
2265.384	2.734	1328992	REC_START	n/a	n/a	n/a	-999	0	18	[0, 0, 0]	n/a	0	1	0	n/a	n/a	0.0	0	0	0	FR2	0	R1031M
2268.118	6.731	1330358	REC_WORD	2.734	n/a	ELF	4	1	18	[0, 0, 0]	n/a	0	1	0	n/a	n/a	0.0	0	0	0	FR2	0	R1031M
2274.849	1.691	1333724	REC_WORD	9.465	n/a	MAP	1	1	18	[0, 0, 0]	n/a	0	1	0	n/a	n/a	0.0	0	0	0	FR2	0	R1031M
2276.54	5.471	1334569	REC_WORD	11.156	n/a	CORN	2	1	18	[0, 0, 0]	n/a	0	1	0	n/a	n/a	0.0	0	0	0	FR2	0	R1031M
2282.011	13.383	1337304	REC_WORD	16.627	n/a	ROSE	3	1	18	[0, 0, 0]	n/a	0	1	0	n/a	n/a	0.0	0	0	0	FR2	0	R1031M
2295.394	3.395	1343995	REC_END	n/a	n/a	n/a	-999	0	18	[0, 0, 0]	n/a	0	1	0	n/a	n/a	0.0	0	0	0	FR2	0	R1031M
2298.789	0.0	1345692	TRIAL	n/a	n/a	n/a	-999	0	19	[0, 0, 0]	n/a	0	1	0	n/a	n/a	0.0	0	0	0	FR2	0	R1031M
2298.789	10.0	1345692	COUNTDOWN_START	n/a	n/a	n/a	-999	0	19	[0, 0, 0]	n/a	0	1	0	n/a	n/a	0.0	0	0	0	FR2	0	R1031M
2309.217	0.007	1350906	COUNTDOWN_END	n/a	n/a	n/a	-999	0	19	[0, 0, 0]	n/a	0	1	0	n/a	n/a	0.0	0	0	0	FR2	0	R1031M
2309.224	1.6	1350909	ORIENT	n/a	n/a	n/a	-999	0	19	[0, 0, 0]	n/a	0	1	0	n/a	n/a	0.0	0	0	0	FR2	0	R1031M
2311.562	4.6	1352078	STIM_ON	n/a	n/a	n/a	-999	0	19	[0, 0, 0]	n/a	1	1	4600	RTD5	RTD6	1500.0	50	230	300	FR2	0	R1031M
2311.775	1.6	1352185	WORD	n/a	wordpools/wordpool_EN.txt	MOUSE	1	1	19	[0, 0, 0]	n/a	1	1	4600	RTD5	RTD6	1500.0	50	230	300	FR2	0	R1031M
2314.276	1.6	1353435	WORD	n/a	wordpools/wordpool_EN.txt	CROW	2	1	19	[0, 0, 0]	n/a	1	1	4600	RTD5	RTD6	1500.0	50	230	300	FR2	0	R1031M
2316.875	1.6	1354734	WORD	n/a	wordpools/wordpool_EN.txt	ROAD	3	1	19	[0, 0, 0]	n/a	0	1	0	n/a	n/a	0.0	0	0	0	FR2	0	R1031M
2319.327	1.6	1355960	WORD	n/a	wordpools/wordpool_EN.txt	GRASS	4	1	19	[0, 0, 0]	n/a	0	1	0	n/a	n/a	0.0	0	0	0	FR2	0	R1031M
2321.627	4.6	1357110	STIM_ON	n/a	n/a	n/a	-999	0	19	[0, 0, 0]	n/a	1	1	4600	RTD5	RTD6	1500.0	50	230	300	FR2	0	R1031M
2321.843	1.6	1357218	WORD	n/a	wordpools/wordpool_EN.txt	DRUM	5	0	19	[0, 0, 0]	n/a	1	1	4600	RTD5	RTD6	1500.0	50	230	300	FR2	0	R1031M
2324.361	1.6	1358477	WORD	n/a	wordpools/wordpool_EN.txt	WEB	6	1	19	[0, 0, 0]	n/a	1	1	4600	RTD5	RTD6	1500.0	50	230	300	FR2	0	R1031M
2326.844	1.6	1359718	WORD	n/a	wordpools/wordpool_EN.txt	FLUTE	7	0	19	[0, 0, 0]	n/a	0	1	0	n/a	n/a	0.0	0	0	0	FR2	0	R1031M
2329.412	1.6	1361002	WORD	n/a	wordpools/wordpool_EN.txt	RAIN	8	0	19	[0, 0, 0]	n/a	0	1	0	n/a	n/a	0.0	0	0	0	FR2	0	R1031M
2331.777	4.6	1362185	STIM_ON	n/a	n/a	n/a	-999	0	19	[0, 0, 0]	n/a	1	1	4600	RTD5	RTD6	1500.0	50	230	300	FR2	0	R1031M
2331.978	1.6	1362285	WORD	n/a	wordpools/wordpool_EN.txt	CALF	9	0	19	[0, 0, 0]	n/a	1	1	4600	RTD5	RTD6	1500.0	50	230	300	FR2	0	R1031M
2334.53	1.6	1363561	WORD	n/a	wordpools/wordpool_EN.txt	PRINCE	10	0	19	[0, 0, 0]	n/a	1	1	4600	RTD5	RTD6	1500.0	50	230	300	FR2	0	R1031M
2337.08	1.6	1364836	WORD	n/a	wordpools/wordpool_EN.txt	SHELL	11	0	19	[0, 0, 0]	n/a	0	1	0	n/a	n/a	0.0	0	0	0	FR2	0	R1031M
2339.664	1.6	1366128	WORD	n/a	wordpools/wordpool_EN.txt	WOLF	12	0	19	[0, 0, 0]	n/a	0	1	0	n/a	n/a	0.0	0	0	0	FR2	0	R1031M
2341.281	0.001	1366936	DISTRACT_START	n/a	n/a	n/a	-999	0	19	[0, 0, 0]	n/a	0	1	0	n/a	n/a	0.0	0	0	0	FR2	0	R1031M
2341.282	0.016	1366937	START	n/a	n/a	n/a	-999	0	19	[-999, -999, -999]	n/a	0	1	0	n/a	n/a	0.0	0	0	0	FR2	0	R1031M
2341.298	3.351	1366945	PROB	3.315	n/a	n/a	-999	0	19	[5, 7, 6]	18	0	1	0	n/a	n/a	0.0	0	0	0	FR2	0	R1031M
2344.649	3.249	1368620	PROB	3.219	n/a	n/a	-999	0	19	[5, 3, 5]	13	0	1	0	n/a	n/a	0.0	0	0	0	FR2	0	R1031M
2347.898	2.635	1370244	PROB	2.611	n/a	n/a	-999	0	19	[6, 9, 5]	20	0	1	0	n/a	n/a	0.0	0	0	0	FR2	0	R1031M
2350.533	3.101	1371562	PROB	3.08	n/a	n/a	-999	0	19	[7, 6, 7]	20	0	1	0	n/a	n/a	0.0	0	0	0	FR2	0	R1031M
2353.634	2.734	1373112	PROB	2.699	n/a	n/a	-999	0	19	[9, 2, 3]	14	0	1	0	n/a	n/a	0.0	0	0	0	FR2	0	R1031M
2356.368	2.482	1374479	PROB	2.46	n/a	n/a	-999	0	19	[5, 5, 6]	16	0	1	0	n/a	n/a	0.0	0	0	0	FR2	0	R1031M
2358.85	2.427	1375720	PROB	2.427	n/a	n/a	-999	0	19	[7, 3, 2]	12	0	1	0	n/a	n/a	0.0	0	0	0	FR2	0	R1031M
2361.277	0.008	1376933	STOP	n/a	n/a	n/a	-999	0	19	[-999, -999, -999]	n/a	0	1	0	n/a	n/a	0.0	0	0	0	FR2	0	R1031M
2361.285	1.168	1376937	DISTRACT_END	n/a	n/a	n/a	-999	0	19	[0, 0, 0]	n/a	0	1	0	n/a	n/a	0.0	0	0	0	FR2	0	R1031M
2362.453	1.125	1377521	REC_START	n/a	n/a	n/a	-999	0	19	[0, 0, 0]	n/a	0	1	0	n/a	n/a	0.0	0	0	0	FR2	0	R1031M
2363.578	1.062	1378083	REC_WORD	1.125	n/a	MOUSE	1	1	19	[0, 0, 0]	n/a	0	1	0	n/a	n/a	0.0	0	0	0	FR2	0	R1031M
2364.64	4.276	1378614	REC_WORD	2.187	n/a	CROW	2	1	19	[0, 0, 0]	n/a	0	1	0	n/a	n/a	0.0	0	0	0	FR2	0	R1031M
2368.916	4.625	1380752	REC_WORD	6.463	n/a	ROAD	3	1	19	[0, 0, 0]	n/a	0	1	0	n/a	n/a	0.0	0	0	0	FR2	0	R1031M
2373.541	7.65	1383064	REC_WORD	11.088	n/a	WEB	6	1	19	[0, 0, 0]	n/a	0	1	0	n/a	n/a	0.0	0	0	0	FR2	0	R1031M
2381.191	11.273	1386889	REC_WORD	18.738	n/a	GRASS	4	1	19	[0, 0, 0]	n/a	0	1	0	n/a	n/a	0.0	0	0	0	FR2	0	R1031M
2392.464	18.998	1392525	REC_END	n/a	n/a	n/a	-999	0	19	[0, 0, 0]	n/a	0	1	0	n/a	n/a	0.0	0	0	0	FR2	0	R1031M
2411.462	0.0	1402023	TRIAL	n/a	n/a	n/a	-999	0	20	[0, 0, 0]	n/a	0	0	0	n/a	n/a	0.0	0	0	0	FR2	0	R1031M
2411.462	10.0	1402023	COUNTDOWN_START	n/a	n/a	n/a	-999	0	20	[0, 0, 0]	n/a	0	0	0	n/a	n/a	0.0	0	0	0	FR2	0	R1031M
2421.89	0.006	1407236	COUNTDOWN_END	n/a	n/a	n/a	-999	0	20	[0, 0, 0]	n/a	0	0	0	n/a	n/a	0.0	0	0	0	FR2	0	R1031M
2421.896	1.6	1407239	ORIENT	n/a	n/a	n/a	-999	0	20	[0, 0, 0]	n/a	0	0	0	n/a	n/a	0.0	0	0	0	FR2	0	R1031M
2424.398	1.6	1408490	WORD	n/a	wordpools/wordpool_EN.txt	AXE	1	1	20	[0, 0, 0]	n/a	0	0	0	n/a	n/a	0.0	0	0	0	FR2	0	R1031M
2427.014	1.6	1409798	WORD	n/a	wordpools/wordpool_EN.txt	OWL	2	1	20	[0, 0, 0]	n/a	0	0	0	n/a	n/a	0.0	0	0	0	FR2	0	R1031M
2429.415	1.6	1410999	WORD	n/a	wordpools/wordpool_EN.txt	GOAT	3	0	20	[0, 0, 0]	n/a	0	0	0	n/a	n/a	0.0	0	0	0	FR2	0	R1031M
2432.031	1.6	1412306	WORD	n/a	wordpools/wordpool_EN.txt	EAR	4	1	20	[0, 0, 0]	n/a	0	0	0	n/a	n/a	0.0	0	0	0	FR2	0	R1031M
2434.449	1.6	1413515	WORD	n/a	wordpools/wordpool_EN.txt	RAT	5	0	20	[0, 0, 0]	n/a	0	0	0	n/a	n/a	0.0	0	0	0	FR2	0	R1031M
2436.899	1.6	1414740	WORD	n/a	wordpools/wordpool_EN.txt	FORK	6	0	20	[0, 0, 0]	n/a	0	0	0	n/a	n/a	0.0	0	0	0	FR2	0	R1031M
2439.45	1.6	1416015	WORD	n/a	wordpools/wordpool_EN.txt	ROPE	7	0	20	[0, 0, 0]	n/a	0	0	0	n/a	n/a	0.0	0	0	0	FR2	0	R1031M
2441.95	1.6	1417265	WORD	n/a	wordpools/wordpool_EN.txt	PIPE	8	0	20	[0, 0, 0]	n/a	0	0	0	n/a	n/a	0.0	0	0	0	FR2	0	R1031M
2444.368	1.6	1418474	WORD	n/a	wordpools/wordpool_EN.txt	CRANE	9	0	20	[0, 0, 0]	n/a	0	0	0	n/a	n/a	0.0	0	0	0	FR2	0	R1031M
2446.868	1.6	1419724	WORD	n/a	wordpools/wordpool_EN.txt	MOUTH	10	0	20	[0, 0, 0]	n/a	0	0	0	n/a	n/a	0.0	0	0	0	FR2	0	R1031M
2449.469	1.6	1421024	WORD	n/a	wordpools/wordpool_EN.txt	WAND	11	0	20	[0, 0, 0]	n/a	0	0	0	n/a	n/a	0.0	0	0	0	FR2	0	R1031M
2452.035	1.6	1422307	WORD	n/a	wordpools/wordpool_EN.txt	THUMB	12	0	20	[0, 0, 0]	n/a	0	0	0	n/a	n/a	0.0	0	0	0	FR2	0	R1031M
2453.636	0.001	1423108	DISTRACT_START	n/a	n/a	n/a	-999	0	20	[0, 0, 0]	n/a	0	0	0	n/a	n/a	0.0	0	0	0	FR2	0	R1031M
2453.637	0.016	1423108	START	n/a	n/a	n/a	-999	0	20	[-999, -999, -999]	n/a	0	0	0	n/a	n/a	0.0	0	0	0	FR2	0	R1031M
2453.653	3.283	1423116	PROB	3.247	n/a	n/a	-999	0	20	[8, 5, 1]	14	0	0	0	n/a	n/a	0.0	0	0	0	FR2	0	R1031M
2456.936	2.335	1424758	PROB	2.308	n/a	n/a	-999	0	20	[3, 1, 1]	5	0	0	0	n/a	n/a	0.0	0	0	0	FR2	0	R1031M
2459.271	2.749	1425925	PROB	2.717	n/a	n/a	-999	0	20	[8, 5, 5]	18	0	0	0	n/a	n/a	0.0	0	0	0	FR2	0	R1031M
2462.02	6.052	1427299	PROB	6.024	n/a	n/a	-999	0	20	[4, 3, 2]	9	0	0	0	n/a	n/a	0.0	0	0	0	FR2	0	R1031M
2468.072	2.65	1430325	PROB	2.628	n/a	n/a	-999	0	20	[7, 3, 5]	15	0	0	0	n/a	n/a	0.0	0	0	0	FR2	0	R1031M
2470.722	2.962	1431650	PROB	2.962	n/a	n/a	-999	0	20	[7, 2, 5]	14	0	0	0	n/a	n/a	0.0	0	0	0	FR2	0	R1031M
2473.684	0.005	1433131	STOP	n/a	n/a	n/a	-999	0	20	[-999, -999, -999]	n/a	0	0	0	n/a	n/a	0.0	0	0	0	FR2	0	R1031M
2473.689	1.184	1433133	DISTRACT_END	n/a	n/a	n/a	-999	0	20	[0, 0, 0]	n/a	0	0	0	n/a	n/a	0.0	0	0	0	FR2	0	R1031M
2474.873	1.49	1433725	REC_START	n/a	n/a	n/a	-999	0	20	[0, 0, 0]	n/a	0	0	0	n/a	n/a	0.0	0	0	0	FR2	0	R1031M
2476.363	4.672	1434470	REC_WORD	1.49	n/a	AXE	1	1	20	[0, 0, 0]	n/a	0	0	0	n/a	n/a	0.0	0	0	0	FR2	0	R1031M
2481.035	1.859	1436806	REC_WORD	6.162	n/a	WOLF	-999	0	20	[0, 0, 0]	n/a	0	0	0	n/a	n/a	0.0	0	0	0	FR2	0	R1031M
2482.894	5.493	1437735	REC_WORD	8.021	n/a	OWL	2	1	20	[0, 0, 0]	n/a	0	0	0	n/a	n/a	0.0	0	0	0	FR2	0	R1031M
2488.387	16.501	1440481	REC_WORD	13.514	n/a	EAR	4	1	20	[0, 0, 0]	n/a	0	0	0	n/a	n/a	0.0	0	0	0	FR2	0	R1031M
2504.888	53.485	1448731	REC_END	n/a	n/a	n/a	-999	0	20	[0, 0, 0]	n/a	0	0	0	n/a	n/a	0.0	0	0	0	FR2	0	R1031M
2558.373	10.0	1475471	COUNTDOWN_START	n/a	n/a	n/a	-999	0	21	[0, 0, 0]	n/a	0	1	0	n/a	n/a	0.0	0	0	0	FR2	0	R1031M
2558.374	0.0	1475471	TRIAL	n/a	n/a	n/a	-999	0	21	[0, 0, 0]	n/a	0	1	0	n/a	n/a	0.0	0	0	0	FR2	0	R1031M
