onset	duration	sample	trial_type	response_time	stim_file	item_name	serialpos	recalled	list	test	answer	stimulation	stim_list	stim_duration	anode_label	cathode_label	amplitude	pulse_freq	n_pulses	pulse_width	experiment	session	subject
0.0	19.73	68964	SESS_START	n/a	n/a	n/a	-999	0	-999	[0, 0, 0]	n/a	0	0	0	n/a	n/a	0.0	0	0	0	FR2	0	R1112M
19.73	10.0	78828	COUNTDOWN_START	n/a	n/a	n/a	-999	0	-999	[0, 0, 0]	n/a	0	0	0	n/a	n/a	0.0	0	0	0	FR2	0	R1112M
30.158	3.575	84042	COUNTDOWN_END	n/a	n/a	n/a	-999	0	-999	[0, 0, 0]	n/a	0	0	0	n/a	n/a	0.0	0	0	0	FR2	0	R1112M
33.733	1.6	85829	PRACTICE_WORD	n/a	n/a	CHEST	1	0	-1	[0, 0, 0]	n/a	0	0	0	n/a	n/a	0.0	0	0	0	FR2	0	R1112M
36.234	1.6	87080	PRACTICE_WORD	n/a	n/a	BEAM	2	0	-1	[0, 0, 0]	n/a	0	0	0	n/a	n/a	0.0	0	0	0	FR2	0	R1112M
38.701	1.6	88313	PRACTICE_WORD	n/a	n/a	WAGON	3	0	-1	[0, 0, 0]	n/a	0	0	0	n/a	n/a	0.0	0	0	0	FR2	0	R1112M
41.319	1.6	89622	PRACTICE_WORD	n/a	n/a	CAMEL	4	0	-1	[0, 0, 0]	n/a	0	0	0	n/a	n/a	0.0	0	0	0	FR2	0	R1112M
43.802	1.6	90863	PRACTICE_WORD	n/a	n/a	TONGUE	5	0	-1	[0, 0, 0]	n/a	0	0	0	n/a	n/a	0.0	0	0	0	FR2	0	R1112M
46.253	1.6	92089	PRACTICE_WORD	n/a	n/a	FLOOD	6	0	-1	[0, 0, 0]	n/a	0	0	0	n/a	n/a	0.0	0	0	0	FR2	0	R1112M
48.652	1.6	93288	PRACTICE_WORD	n/a	n/a	ATTIC	7	0	-1	[0, 0, 0]	n/a	0	0	0	n/a	n/a	0.0	0	0	0	FR2	0	R1112M
51.137	1.6	94531	PRACTICE_WORD	n/a	n/a	RHINO	8	0	-1	[0, 0, 0]	n/a	0	0	0	n/a	n/a	0.0	0	0	0	FR2	0	R1112M
53.52	1.6	95722	PRACTICE_WORD	n/a	n/a	WATCH	9	0	-1	[0, 0, 0]	n/a	0	0	0	n/a	n/a	0.0	0	0	0	FR2	0	R1112M
56.055	1.6	96990	PRACTICE_WORD	n/a	n/a	RING	10	0	-1	[0, 0, 0]	n/a	0	0	0	n/a	n/a	0.0	0	0	0	FR2	0	R1112M
58.438	1.6	98181	PRACTICE_WORD	n/a	n/a	IRON	11	0	-1	[0, 0, 0]	n/a	0	0	0	n/a	n/a	0.0	0	0	0	FR2	0	R1112M
60.923	1.6	99423	PRACTICE_WORD	n/a	n/a	COTTON	12	0	-1	[0, 0, 0]	n/a	0	0	0	n/a	n/a	0.0	0	0	0	FR2	0	R1112M
62.538	0.001	100231	PRACTICE_DISTRACT_START	n/a	n/a	n/a	-999	0	-1	[0, 0, 0]	n/a	0	0	0	n/a	n/a	0.0	0	0	0	FR2	0	R1112M
62.539	0.016	100231	START	n/a	n/a	n/a	-999	0	-1	[-999, -999, -999]	n/a	0	0	0	n/a	n/a	0.0	0	0	0	FR2	0	R1112M
62.555	7.819	100239	PROB	7.797	n/a	n/a	-999	0	-1	[6, 2, 6]	14	0	0	0	n/a	n/a	0.0	0	0	0	FR2	0	R1112M
70.374	14.682	104149	PROB	14.682	n/a	n/a	-999	0	-1	[7, 7, 7]	20	0	0	0	n/a	n/a	0.0	0	0	0	FR2	0	R1112M
85.056	0.004	111489	STOP	n/a	n/a	n/a	-999	0	-1	[-999, -999, -999]	n/a	0	0	0	n/a	n/a	0.0	0	0	0	FR2	0	R1112M
85.06	0.585	111491	PRACTICE_DISTRACT_END	n/a	n/a	n/a	-999	0	-1	[0, 0, 0]	n/a	0	0	0	n/a	n/a	0.0	0	0	0	FR2	0	R1112M
85.645	30.516	111784	PRACTICE_REC_START	n/a	n/a	n/a	-999	0	-1	[0, 0, 0]	n/a	0	0	0	n/a	n/a	0.0	0	0	0	FR2	0	R1112M
116.161	20.309	127041	PRACTICE_REC_END	n/a	n/a	n/a	-999	0	-1	[0, 0, 0]	n/a	0	0	0	n/a	n/a	0.0	0	0	0	FR2	0	R1112M
136.47	0.0	137195	TRIAL	n/a	n/a	n/a	-999	0	1	[0, 0, 0]	n/a	0	1	0	n/a	n/a	0.0	0	0	0	FR2	0	R1112M
136.47	10.0	137195	COUNTDOWN_START	n/a	n/a	n/a	-999	0	1	[0, 0, 0]	n/a	0	1	0	n/a	n/a	0.0	0	0	0	FR2	0	R1112M
146.898	0.008	142409	COUNTDOWN_END	n/a	n/a	n/a	-999	0	1	[0, 0, 0]	n/a	0	1	0	n/a	n/a	0.0	0	0	0	FR2	0	R1112M
146.906	1.6	142413	ORIENT	n/a	n/a	n/a	-999	0	1	[0, 0, 0]	n/a	0	1	0	n/a	n/a	0.0	0	0	0	FR2	0	R1112M
149.141	4.6	143530	STIM_ON	n/a	n/a	n/a	-999	0	1	[0, 0, 0]	n/a	1	1	4600	RAD1	RAD2	500.0	50	230	300	FR2	0	R1112M
149.357	1.6	143638	WORD	n/a	wordpools/wordpool_EN.txt	MOON	1	0	1	[0, 0, 0]	n/a	1	1	4600	RAD1	RAD2	500.0	50	230	300	FR2	0	R1112M
151.756	1.6	144837	WORD	n/a	wordpools/wordpool_EN.txt	BEE	2	0	1	[0, 0, 0]	n/a	1	1	4600	RAD1	RAD2	500.0	50	230	300	FR2	0	R1112M
154.224	1.6	146071	WORD	n/a	wordpools/wordpool_EN.txt	SHIP	3	0	1	[0, 0, 0]	n/a	0	1	0	n/a	n/a	0.0	0	0	0	FR2	0	R1112M
156.69	1.6	147304	WORD	n/a	wordpools/wordpool_EN.txt	SAIL	4	0	1	[0, 0, 0]	n/a	0	1	0	n/a	n/a	0.0	0	0	0	FR2	0	R1112M
159.074	4.6	148496	STIM_ON	n/a	n/a	n/a	-999	0	1	[0, 0, 0]	n/a	1	1	4600	RAD1	RAD2	500.0	50	230	300	FR2	0	R1112M
159.292	1.6	148605	WORD	n/a	wordpools/wordpool_EN.txt	POLE	5	0	1	[0, 0, 0]	n/a	1	1	4600	RAD1	RAD2	500.0	50	230	300	FR2	0	R1112M
161.675	1.6	149797	WORD	n/a	wordpools/wordpool_EN.txt	EGG	6	0	1	[0, 0, 0]	n/a	1	1	4600	RAD1	RAD2	500.0	50	230	300	FR2	0	R1112M
164.109	1.6	151014	WORD	n/a	wordpools/wordpool_EN.txt	FORT	7	0	1	[0, 0, 0]	n/a	0	1	0	n/a	n/a	0.0	0	0	0	FR2	0	R1112M
166.692	1.6	152305	WORD	n/a	wordpools/wordpool_EN.txt	ZOO	8	1	1	[0, 0, 0]	n/a	0	1	0	n/a	n/a	0.0	0	0	0	FR2	0	R1112M
168.926	4.6	153422	STIM_ON	n/a	n/a	n/a	-999	0	1	[0, 0, 0]	n/a	1	1	4600	RAD1	RAD2	500.0	50	230	300	FR2	0	R1112M
169.144	1.6	153531	WORD	n/a	wordpools/wordpool_EN.txt	ROCK	9	0	1	[0, 0, 0]	n/a	1	1	4600	RAD1	RAD2	500.0	50	230	300	FR2	0	R1112M
171.643	1.6	154780	WORD	n/a	wordpools/wordpool_EN.txt	CAT	10	0	1	[0, 0, 0]	n/a	1	1	4600	RAD1	RAD2	500.0	50	230	300	FR2	0	R1112M
174.078	1.6	155998	WORD	n/a	wordpools/wordpool_EN.txt	SHARK	11	0	1	[0, 0, 0]	n/a	0	1	0	n/a	n/a	0.0	0	0	0	FR2	0	R1112M
176.511	1.6	157214	WORD	n/a	wordpools/wordpool_EN.txt	FILM	12	0	1	[0, 0, 0]	n/a	0	1	0	n/a	n/a	0.0	0	0	0	FR2	0	R1112M
178.129	0.001	158023	DISTRACT_START	n/a	n/a	n/a	-999	0	1	[0, 0, 0]	n/a	0	1	0	n/a	n/a	0.0	0	0	0	FR2	0	R1112M
178.13	0.016	158024	START	n/a	n/a	n/a	-999	0	1	[-999, -999, -999]	n/a	0	1	0	n/a	n/a	0.0	0	0	0	FR2	0	R1112M
178.146	13.384	158032	PROB	13.349	n/a	n/a	-999	0	1	[5, 8, 1]	14	0	1	0	n/a	n/a	0.0	0	0	0	FR2	0	R1112M
191.53	6.503	164723	PROB	6.47	n/a	n/a	-999	0	1	[1, 2, 8]	11	0	1	0	n/a	n/a	0.0	0	0	0	FR2	0	R1112M
198.033	11.839	167975	PROB	11.839	n/a	n/a	-999	0	1	[6, 9, 2]	17	0	1	0	n/a	n/a	0.0	0	0	0	FR2	0	R1112M
209.872	0.013	173894	STOP	n/a	n/a	n/a	-999	0	1	[-999, -999, -999]	n/a	0	1	0	n/a	n/a	0.0	0	0	0	FR2	0	R1112M
209.885	1.035	173900	DISTRACT_END	n/a	n/a	n/a	-999	0	1	[0, 0, 0]	n/a	0	1	0	n/a	n/a	0.0	0	0	0	FR2	0	R1112M
210.92	9.401	174418	REC_START	n/a	n/a	n/a	-999	0	1	[0, 0, 0]	n/a	0	1	0	n/a	n/a	0.0	0	0	0	FR2	0	R1112M
220.321	3.985	179118	REC_WORD	9.401	n/a	ZOO	8	1	1	[0, 0, 0]	n/a	0	1	0	n/a	n/a	0.0	0	0	0	FR2	0	R1112M
224.306	16.625	181110	REC_WORD	13.386	n/a	RHINO	-999	0	1	[0, 0, 0]	n/a	0	1	0	n/a	n/a	0.0	0	0	0	FR2	0	R1112M
240.931	7.328	189422	REC_END	n/a	n/a	n/a	-999	0	1	[0, 0, 0]	n/a	0	1	0	n/a	n/a	0.0	0	0	0	FR2	0	R1112M
248.259	10.0	193086	COUNTDOWN_START	n/a	n/a	n/a	-999	0	2	[0, 0, 0]	n/a	0	1	0	n/a	n/a	0.0	0	0	0	FR2	0	R1112M
248.26	10.427	193087	TRIAL	n/a	n/a	n/a	-999	0	2	[0, 0, 0]	n/a	0	1	0	n/a	n/a	0.0	0	0	0	FR2	0	R1112M
258.687	0.007	198300	COUNTDOWN_END	n/a	n/a	n/a	-999	0	2	[0, 0, 0]	n/a	0	1	0	n/a	n/a	0.0	0	0	0	FR2	0	R1112M
258.694	1.6	198303	ORIENT	n/a	n/a	n/a	-999	0	2	[0, 0, 0]	n/a	0	1	0	n/a	n/a	0.0	0	0	0	FR2	0	R1112M
261.195	1.6	199554	WORD	n/a	wordpools/wordpool_EN.txt	THREAD	1	0	2	[0, 0, 0]	n/a	0	1	0	n/a	n/a	0.0	0	0	0	FR2	0	R1112M
263.778	1.6	200845	WORD	n/a	wordpools/wordpool_EN.txt	SHOE	2	1	2	[0, 0, 0]	n/a	0	1	0	n/a	n/a	0.0	0	0	0	FR2	0	R1112M
266.065	4.6	201989	STIM_ON	n/a	n/a	n/a	-999	0	2	[0, 0, 0]	n/a	1	1	4600	RAD1	RAD2	500.0	50	230	300	FR2	0	R1112M
266.279	1.6	202096	WORD	n/a	wordpools/wordpool_EN.txt	LIP	3	0	2	[0, 0, 0]	n/a	1	1	4600	RAD1	RAD2	500.0	50	230	300	FR2	0	R1112M
268.863	1.6	203388	WORD	n/a	wordpools/wordpool_EN.txt	SUIT	4	0	2	[0, 0, 0]	n/a	1	1	4600	RAD1	RAD2	500.0	50	230	300	FR2	0	R1112M
271.38	1.6	204646	WORD	n/a	wordpools/wordpool_EN.txt	RUG	5	0	2	[0, 0, 0]	n/a	0	1	0	n/a	n/a	0.0	0	0	0	FR2	0	R1112M
273.798	1.6	205855	WORD	n/a	wordpools/wordpool_EN.txt	SHIELD	6	0	2	[0, 0, 0]	n/a	0	1	0	n/a	n/a	0.0	0	0	0	FR2	0	R1112M
276.161	4.6	207036	STIM_ON	n/a	n/a	n/a	-999	0	2	[0, 0, 0]	n/a	1	1	4600	RAD1	RAD2	500.0	50	230	300	FR2	0	R1112M
276.365	1.6	207138	WORD	n/a	wordpools/wordpool_EN.txt	SIGN	7	0	2	[0, 0, 0]	n/a	1	1	4600	RAD1	RAD2	500.0	50	230	300	FR2	0	R1112M
278.882	1.6	208397	WORD	n/a	wordpools/wordpool_EN.txt	BEAK	8	0	2	[0, 0, 0]	n/a	1	1	4600	RAD1	RAD2	500.0	50	230	300	FR2	0	R1112M
281.349	1.6	209630	WORD	n/a	wordpools/wordpool_EN.txt	PANTS	9	0	2	[0, 0, 0]	n/a	0	1	0	n/a	n/a	0.0	0	0	0	FR2	0	R1112M
283.949	1.6	210930	WORD	n/a	wordpools/wordpool_EN.txt	SOAP	10	0	2	[0, 0, 0]	n/a	0	1	0	n/a	n/a	0.0	0	0	0	FR2	0	R1112M
286.23	4.6	212071	STIM_ON	n/a	n/a	n/a	-999	0	2	[0, 0, 0]	n/a	1	1	4600	RAD1	RAD2	500.0	50	230	300	FR2	0	R1112M
286.432	1.6	212172	WORD	n/a	wordpools/wordpool_EN.txt	CLOWN	11	0	2	[0, 0, 0]	n/a	1	1	4600	RAD1	RAD2	500.0	50	230	300	FR2	0	R1112M
288.917	1.6	213414	WORD	n/a	wordpools/wordpool_EN.txt	LAMP	12	0	2	[0, 0, 0]	n/a	1	1	4600	RAD1	RAD2	500.0	50	230	300	FR2	0	R1112M
290.533	0.001	214222	DISTRACT_START	n/a	n/a	n/a	-999	0	2	[0, 0, 0]	n/a	1	1	4600	RAD1	RAD2	500.0	50	230	300	FR2	0	R1112M
290.534	0.016	214222	START	n/a	n/a	n/a	-999	0	2	[-999, -999, -999]	n/a	0	1	0	n/a	n/a	0.0	0	0	0	FR2	0	R1112M
290.55	12.969	214230	PROB	12.937	n/a	n/a	-999	0	2	[9, 6, 3]	18	0	1	0	n/a	n/a	0.0	0	0	0	FR2	0	R1112M
303.519	6.619	220715	PROB	6.593	n/a	n/a	-999	0	2	[2, 5, 8]	15	0	1	0	n/a	n/a	0.0	0	0	0	FR2	0	R1112M
310.138	10.174	224024	PROB	10.174	n/a	n/a	-999	0	2	[6, 1, 3]	10	0	1	0	n/a	n/a	0.0	0	0	0	FR2	0	R1112M
320.312	0.011	229111	STOP	n/a	n/a	n/a	-999	0	2	[-999, -999, -999]	n/a	0	1	0	n/a	n/a	0.0	0	0	0	FR2	0	R1112M
320.323	1.117	229116	DISTRACT_END	n/a	n/a	n/a	-999	0	2	[0, 0, 0]	n/a	0	1	0	n/a	n/a	0.0	0	0	0	FR2	0	R1112M
321.44	4.692	229675	REC_START	n/a	n/a	n/a	-999	0	2	[0, 0, 0]	n/a	0	1	0	n/a	n/a	0.0	0	0	0	FR2	0	R1112M
326.132	25.319	232020	REC_WORD	4.692	n/a	SHOE	2	1	2	[0, 0, 0]	n/a	0	1	0	n/a	n/a	0.0	0	0	0	FR2	0	R1112M
351.451	4.112	244679	REC_END	n/a	n/a	n/a	-999	0	2	[0, 0, 0]	n/a	0	1	0	n/a	n/a	0.0	0	0	0	FR2	0	R1112M
355.563	0.0	246735	TRIAL	n/a	n/a	n/a	-999	0	3	[0, 0, 0]	n/a	0	1	0	n/a	n/a	0.0	0	0	0	FR2	0	R1112M
355.563	10.0	246735	COUNTDOWN_START	n/a	n/a	n/a	-999	0	3	[0, 0, 0]	n/a	0	1	0	n/a	n/a	0.0	0	0	0	FR2	0	R1112M
365.991	0.008	251949	COUNTDOWN_END	n/a	n/a	n/a	-999	0	3	[0, 0, 0]	n/a	0	1	0	n/a	n/a	0.0	0	0	0	FR2	0	R1112M
365.999	1.6	251953	ORIENT	n/a	n/a	n/a	-999	0	3	[0, 0, 0]	n/a	0	1	0	n/a	n/a	0.0	0	0	0	FR2	0	R1112M
368.448	1.6	253177	WORD	n/a	wordpools/wordpool_EN.txt	SPEAR	1	0	3	[0, 0, 0]	n/a	0	1	0	n/a	n/a	0.0	0	0	0	FR2	0	R1112M
371.017	1.6	254462	WORD	n/a	wordpools/wordpool_EN.txt	HOLE	2	0	3	[0, 0, 0]	n/a	0	1	0	n/a	n/a	0.0	0	0	0	FR2	0	R1112M
373.412	4.6	255659	STIM_ON	n/a	n/a	n/a	-999	0	3	[0, 0, 0]	n/a	1	1	4600	RAD1	RAD2	500.0	50	230	300	FR2	0	R1112M
373.616	1.6	255761	WORD	n/a	wordpools/wordpool_EN.txt	BUSH	3	0	3	[0, 0, 0]	n/a	1	1	4600	RAD1	RAD2	500.0	50	230	300	FR2	0	R1112M
376.184	1.6	257045	WORD	n/a	wordpools/wordpool_EN.txt	CHIN	4	1	3	[0, 0, 0]	n/a	1	1	4600	RAD1	RAD2	500.0	50	230	300	FR2	0	R1112M
378.567	1.6	258237	WORD	n/a	wordpools/wordpool_EN.txt	CHEEK	5	1	3	[0, 0, 0]	n/a	0	1	0	n/a	n/a	0.0	0	0	0	FR2	0	R1112M
380.952	1.6	259429	WORD	n/a	wordpools/wordpool_EN.txt	PALM	6	0	3	[0, 0, 0]	n/a	0	1	0	n/a	n/a	0.0	0	0	0	FR2	0	R1112M
383.289	4.6	260597	STIM_ON	n/a	n/a	n/a	-999	0	3	[0, 0, 0]	n/a	1	1	4600	RAD1	RAD2	500.0	50	230	300	FR2	0	R1112M
383.501	1.6	260703	WORD	n/a	wordpools/wordpool_EN.txt	FLOOR	7	0	3	[0, 0, 0]	n/a	1	1	4600	RAD1	RAD2	500.0	50	230	300	FR2	0	R1112M
385.986	1.6	261946	WORD	n/a	wordpools/wordpool_EN.txt	CONE	8	0	3	[0, 0, 0]	n/a	1	1	4600	RAD1	RAD2	500.0	50	230	300	FR2	0	R1112M
388.469	1.6	263187	WORD	n/a	wordpools/wordpool_EN.txt	LOCK	9	0	3	[0, 0, 0]	n/a	0	1	0	n/a	n/a	0.0	0	0	0	FR2	0	R1112M
390.937	1.6	264421	WORD	n/a	wordpools/wordpool_EN.txt	SWORD	10	1	3	[0, 0, 0]	n/a	0	1	0	n/a	n/a	0.0	0	0	0	FR2	0	R1112M
393.141	4.6	265523	STIM_ON	n/a	n/a	n/a	-999	0	3	[0, 0, 0]	n/a	1	1	4600	RAD1	RAD2	500.0	50	230	300	FR2	0	R1112M
393.354	1.6	265630	WORD	n/a	wordpools/wordpool_EN.txt	FROG	11	0	3	[0, 0, 0]	n/a	1	1	4600	RAD1	RAD2	500.0	50	230	300	FR2	0	R1112M
395.838	1.6	266872	WORD	n/a	wordpools/wordpool_EN.txt	FLAME	12	0	3	[0, 0, 0]	n/a	1	1	4600	RAD1	RAD2	500.0	50	230	300	FR2	0	R1112M
397.454	0.001	267679	DISTRACT_START	n/a	n/a	n/a	-999	0	3	[0, 0, 0]	n/a	1	1	4600	RAD1	RAD2	500.0	50	230	300	FR2	0	R1112M
397.455	0.016	267680	START	n/a	n/a	n/a	-999	0	3	[-999, -999, -999]	n/a	0	1	0	n/a	n/a	0.0	0	0	0	FR2	0	R1112M
397.471	11.302	267688	PROB	11.28	n/a	n/a	-999	0	3	[2, 7, 5]	14	0	1	0	n/a	n/a	0.0	0	0	0	FR2	0	R1112M
408.773	10.571	273339	PROB	10.571	n/a	n/a	-999	0	3	[5, 7, 8]	20	0	1	0	n/a	n/a	0.0	0	0	0	FR2	0	R1112M
419.344	0.015	278624	STOP	n/a	n/a	n/a	-999	0	3	[-999, -999, -999]	n/a	0	1	0	n/a	n/a	0.0	0	0	0	FR2	0	R1112M
419.359	1.217	278631	DISTRACT_END	n/a	n/a	n/a	-999	0	3	[0, 0, 0]	n/a	0	1	0	n/a	n/a	0.0	0	0	0	FR2	0	R1112M
420.576	4.636	279240	REC_START	n/a	n/a	n/a	-999	0	3	[0, 0, 0]	n/a	0	1	0	n/a	n/a	0.0	0	0	0	FR2	0	R1112M
425.212	1.106	281558	REC_WORD	4.636	n/a	CHEEK	5	1	3	[0, 0, 0]	n/a	0	1	0	n/a	n/a	0.0	0	0	0	FR2	0	R1112M
426.318	4.835	282111	REC_WORD	5.742	n/a	CHIN	4	1	3	[0, 0, 0]	n/a	0	1	0	n/a	n/a	0.0	0	0	0	FR2	0	R1112M
431.153	19.445	284528	REC_WORD	10.577	n/a	SWORD	10	1	3	[0, 0, 0]	n/a	0	1	0	n/a	n/a	0.0	0	0	0	FR2	0	R1112M
450.598	4.802	294250	REC_END	n/a	n/a	n/a	-999	0	3	[0, 0, 0]	n/a	0	1	0	n/a	n/a	0.0	0	0	0	FR2	0	R1112M
455.4	10.0	296651	COUNTDOWN_START	n/a	n/a	n/a	-999	0	4	[0, 0, 0]	n/a	0	1	0	n/a	n/a	0.0	0	0	0	FR2	0	R1112M
455.4	10.428	296651	TRIAL	n/a	n/a	n/a	-999	0	4	[0, 0, 0]	n/a	0	1	0	n/a	n/a	0.0	0	0	0	FR2	0	R1112M
465.828	0.007	301865	COUNTDOWN_END	n/a	n/a	n/a	-999	0	4	[0, 0, 0]	n/a	0	1	0	n/a	n/a	0.0	0	0	0	FR2	0	R1112M
465.835	1.6	301868	ORIENT	n/a	n/a	n/a	-999	0	4	[0, 0, 0]	n/a	0	1	0	n/a	n/a	0.0	0	0	0	FR2	0	R1112M
468.336	1.6	303118	WORD	n/a	wordpools/wordpool_EN.txt	CAR	1	1	4	[0, 0, 0]	n/a	0	1	0	n/a	n/a	0.0	0	0	0	FR2	0	R1112M
470.953	1.6	304427	WORD	n/a	wordpools/wordpool_EN.txt	STORE	2	0	4	[0, 0, 0]	n/a	0	1	0	n/a	n/a	0.0	0	0	0	FR2	0	R1112M
473.266	4.6	305583	STIM_ON	n/a	n/a	n/a	-999	0	4	[0, 0, 0]	n/a	1	1	4600	RAD1	RAD2	500.0	50	230	300	FR2	0	R1112M
473.485	1.6	305693	WORD	n/a	wordpools/wordpool_EN.txt	PLANT	3	0	4	[0, 0, 0]	n/a	1	1	4600	RAD1	RAD2	500.0	50	230	300	FR2	0	R1112M
475.904	1.6	306902	WORD	n/a	wordpools/wordpool_EN.txt	ROOT	4	0	4	[0, 0, 0]	n/a	1	1	4600	RAD1	RAD2	500.0	50	230	300	FR2	0	R1112M
478.321	1.6	308111	WORD	n/a	wordpools/wordpool_EN.txt	FARM	5	0	4	[0, 0, 0]	n/a	0	1	0	n/a	n/a	0.0	0	0	0	FR2	0	R1112M
480.77	1.6	309335	WORD	n/a	wordpools/wordpool_EN.txt	JUICE	6	0	4	[0, 0, 0]	n/a	0	1	0	n/a	n/a	0.0	0	0	0	FR2	0	R1112M
482.999	4.6	310450	STIM_ON	n/a	n/a	n/a	-999	0	4	[0, 0, 0]	n/a	1	1	4600	RAD1	RAD2	500.0	50	230	300	FR2	0	R1112M
483.205	1.6	310553	WORD	n/a	wordpools/wordpool_EN.txt	STORM	7	0	4	[0, 0, 0]	n/a	1	1	4600	RAD1	RAD2	500.0	50	230	300	FR2	0	R1112M
485.638	1.6	311769	WORD	n/a	wordpools/wordpool_EN.txt	SHEEP	8	0	4	[0, 0, 0]	n/a	1	1	4600	RAD1	RAD2	500.0	50	230	300	FR2	0	R1112M
488.206	1.6	313053	WORD	n/a	wordpools/wordpool_EN.txt	ICE	9	0	4	[0, 0, 0]	n/a	0	1	0	n/a	n/a	0.0	0	0	0	FR2	0	R1112M
490.689	1.6	314294	WORD	n/a	wordpools/wordpool_EN.txt	TRASH	10	0	4	[0, 0, 0]	n/a	0	1	0	n/a	n/a	0.0	0	0	0	FR2	0	R1112M
492.898	4.6	315399	STIM_ON	n/a	n/a	n/a	-999	0	4	[0, 0, 0]	n/a	1	1	4600	RAD1	RAD2	500.0	50	230	300	FR2	0	R1112M
493.107	1.6	315503	WORD	n/a	wordpools/wordpool_EN.txt	CUBE	11	0	4	[0, 0, 0]	n/a	1	1	4600	RAD1	RAD2	500.0	50	230	300	FR2	0	R1112M
495.656	1.6	316778	WORD	n/a	wordpools/wordpool_EN.txt	GRAPE	12	0	4	[0, 0, 0]	n/a	1	1	4600	RAD1	RAD2	500.0	50	230	300	FR2	0	R1112M
497.258	0.001	317579	DISTRACT_START	n/a	n/a	n/a	-999	0	4	[0, 0, 0]	n/a	1	1	4600	RAD1	RAD2	500.0	50	230	300	FR2	0	R1112M
497.259	0.015	317579	START	n/a	n/a	n/a	-999	0	4	[-999, -999, -999]	n/a	0	1	0	n/a	n/a	0.0	0	0	0	FR2	0	R1112M
497.274	6.002	317587	PROB	5.974	n/a	n/a	-999	0	4	[9, 1, 7]	17	0	1	0	n/a	n/a	0.0	0	0	0	FR2	0	R1112M
503.276	13.552	320587	PROB	13.524	n/a	n/a	-999	0	4	[4, 6, 7]	17	0	1	0	n/a	n/a	0.0	0	0	0	FR2	0	R1112M
516.828	13.148	327363	PROB	13.148	n/a	n/a	-999	0	4	[6, 7, 2]	15	0	1	0	n/a	n/a	0.0	0	0	0	FR2	0	R1112M
529.976	0.005	333937	STOP	n/a	n/a	n/a	-999	0	4	[-999, -999, -999]	n/a	0	1	0	n/a	n/a	0.0	0	0	0	FR2	0	R1112M
529.981	1.201	333939	DISTRACT_END	n/a	n/a	n/a	-999	0	4	[0, 0, 0]	n/a	0	1	0	n/a	n/a	0.0	0	0	0	FR2	0	R1112M
531.182	3.317	334540	REC_START	n/a	n/a	n/a	-999	0	4	[0, 0, 0]	n/a	0	1	0	n/a	n/a	0.0	0	0	0	FR2	0	R1112M
534.499	15.357	336198	REC_WORD	3.317	n/a	CAR	1	1	4	[0, 0, 0]	n/a	0	1	0	n/a	n/a	0.0	0	0	0	FR2	0	R1112M
549.856	11.337	343876	REC_WORD	18.674	n/a	ROAD	-999	0	4	[0, 0, 0]	n/a	0	1	0	n/a	n/a	0.0	0	0	0	FR2	0	R1112M
561.193	8.595	349544	REC_END	n/a	n/a	n/a	-999	0	4	[0, 0, 0]	n/a	0	1	0	n/a	n/a	0.0	0	0	0	FR2	0	R1112M
569.788	0.0	353842	TRIAL	n/a	n/a	n/a	-999	0	5	[0, 0, 0]	n/a	0	0	0	n/a	n/a	0.0	0	0	0	FR2	0	R1112M
569.788	10.0	353842	COUNTDOWN_START	n/a	n/a	n/a	-999	0	5	[0, 0, 0]	n/a	0	0	0	n/a	n/a	0.0	0	0	0	FR2	0	R1112M
580.216	0.008	359055	COUNTDOWN_END	n/a	n/a	n/a	-999	0	5	[0, 0, 0]	n/a	0	0	0	n/a	n/a	0.0	0	0	0	FR2	0	R1112M
580.224	1.6	359059	ORIENT	n/a	n/a	n/a	-999	0	5	[0, 0, 0]	n/a	0	0	0	n/a	n/a	0.0	0	0	0	FR2	0	R1112M
582.757	1.6	360326	WORD	n/a	wordpools/wordpool_EN.txt	AXE	1	0	5	[0, 0, 0]	n/a	0	0	0	n/a	n/a	0.0	0	0	0	FR2	0	R1112M
585.292	1.6	361593	WORD	n/a	wordpools/wordpool_EN.txt	OWL	2	0	5	[0, 0, 0]	n/a	0	0	0	n/a	n/a	0.0	0	0	0	FR2	0	R1112M
587.758	1.6	362826	WORD	n/a	wordpools/wordpool_EN.txt	GOAT	3	0	5	[0, 0, 0]	n/a	0	0	0	n/a	n/a	0.0	0	0	0	FR2	0	R1112M
590.143	1.6	364019	WORD	n/a	wordpools/wordpool_EN.txt	EAR	4	0	5	[0, 0, 0]	n/a	0	0	0	n/a	n/a	0.0	0	0	0	FR2	0	R1112M
592.592	1.6	365243	WORD	n/a	wordpools/wordpool_EN.txt	RAT	5	0	5	[0, 0, 0]	n/a	0	0	0	n/a	n/a	0.0	0	0	0	FR2	0	R1112M
594.977	1.6	366435	WORD	n/a	wordpools/wordpool_EN.txt	FORK	6	0	5	[0, 0, 0]	n/a	0	0	0	n/a	n/a	0.0	0	0	0	FR2	0	R1112M
597.576	1.6	367735	WORD	n/a	wordpools/wordpool_EN.txt	ROPE	7	0	5	[0, 0, 0]	n/a	0	0	0	n/a	n/a	0.0	0	0	0	FR2	0	R1112M
600.044	1.6	368969	WORD	n/a	wordpools/wordpool_EN.txt	PIPE	8	0	5	[0, 0, 0]	n/a	0	0	0	n/a	n/a	0.0	0	0	0	FR2	0	R1112M
602.577	1.6	370235	WORD	n/a	wordpools/wordpool_EN.txt	CRANE	9	0	5	[0, 0, 0]	n/a	0	0	0	n/a	n/a	0.0	0	0	0	FR2	0	R1112M
604.995	1.6	371444	WORD	n/a	wordpools/wordpool_EN.txt	MOUTH	10	0	5	[0, 0, 0]	n/a	0	0	0	n/a	n/a	0.0	0	0	0	FR2	0	R1112M
607.578	1.6	372736	WORD	n/a	wordpools/wordpool_EN.txt	WAND	11	0	5	[0, 0, 0]	n/a	0	0	0	n/a	n/a	0.0	0	0	0	FR2	0	R1112M
610.113	1.6	374003	WORD	n/a	wordpools/wordpool_EN.txt	THUMB	12	0	5	[0, 0, 0]	n/a	0	0	0	n/a	n/a	0.0	0	0	0	FR2	0	R1112M
611.729	0.001	374811	DISTRACT_START	n/a	n/a	n/a	-999	0	5	[0, 0, 0]	n/a	0	0	0	n/a	n/a	0.0	0	0	0	FR2	0	R1112M
611.73	0.016	374811	START	n/a	n/a	n/a	-999	0	5	[-999, -999, -999]	n/a	0	0	0	n/a	n/a	0.0	0	0	0	FR2	0	R1112M
611.746	11.386	374819	PROB	11.358	n/a	n/a	-999	0	5	[5, 3, 7]	15	0	0	0	n/a	n/a	0.0	0	0	0	FR2	0	R1112M
623.132	21.092	380512	PROB	21.092	n/a	n/a	-999	0	5	[7, 8, 9]	24	0	0	0	n/a	n/a	0.0	0	0	0	FR2	0	R1112M
644.224	0.012	391058	STOP	n/a	n/a	n/a	-999	0	5	[-999, -999, -999]	n/a	0	0	0	n/a	n/a	0.0	0	0	0	FR2	0	R1112M
644.236	1.051	391064	DISTRACT_END	n/a	n/a	n/a	-999	0	5	[0, 0, 0]	n/a	0	0	0	n/a	n/a	0.0	0	0	0	FR2	0	R1112M
645.287	30.011	391589	REC_START	n/a	n/a	n/a	-999	0	5	[0, 0, 0]	n/a	0	0	0	n/a	n/a	0.0	0	0	0	FR2	0	R1112M
675.298	0.005	406594	REC_WORD_VV	30.011	n/a	<>	-999	0	5	[0, 0, 0]	n/a	0	0	0	n/a	n/a	0.0	0	0	0	FR2	0	R1112M
675.303	7.473	406596	REC_END	n/a	n/a	n/a	-999	0	5	[0, 0, 0]	n/a	0	0	0	n/a	n/a	0.0	0	0	0	FR2	0	R1112M
682.776	10.0	410332	COUNTDOWN_START	n/a	n/a	n/a	-999	0	6	[0, 0, 0]	n/a	0	1	0	n/a	n/a	0.0	0	0	0	FR2	0	R1112M
682.777	10.427	410333	TRIAL	n/a	n/a	n/a	-999	0	6	[0, 0, 0]	n/a	0	1	0	n/a	n/a	0.0	0	0	0	FR2	0	R1112M
693.204	0.009	415546	COUNTDOWN_END	n/a	n/a	n/a	-999	0	6	[0, 0, 0]	n/a	0	1	0	n/a	n/a	0.0	0	0	0	FR2	0	R1112M
693.213	1.6	415551	ORIENT	n/a	n/a	n/a	-999	0	6	[0, 0, 0]	n/a	0	1	0	n/a	n/a	0.0	0	0	0	FR2	0	R1112M
695.612	1.6	416750	WORD	n/a	wordpools/wordpool_EN.txt	HOUSE	1	0	6	[0, 0, 0]	n/a	0	1	0	n/a	n/a	0.0	0	0	0	FR2	0	R1112M
698.063	1.6	417976	WORD	n/a	wordpools/wordpool_EN.txt	MAZE	2	0	6	[0, 0, 0]	n/a	0	1	0	n/a	n/a	0.0	0	0	0	FR2	0	R1112M
700.281	4.6	419084	STIM_ON	n/a	n/a	n/a	-999	0	6	[0, 0, 0]	n/a	1	1	4600	RAD1	RAD2	500.0	50	230	300	FR2	0	R1112M
700.496	1.6	419192	WORD	n/a	wordpools/wordpool_EN.txt	BATH	3	0	6	[0, 0, 0]	n/a	1	1	4600	RAD1	RAD2	500.0	50	230	300	FR2	0	R1112M
703.031	1.6	420459	WORD	n/a	wordpools/wordpool_EN.txt	SNAKE	4	1	6	[0, 0, 0]	n/a	1	1	4600	RAD1	RAD2	500.0	50	230	300	FR2	0	R1112M
705.431	1.6	421659	WORD	n/a	wordpools/wordpool_EN.txt	DITCH	5	0	6	[0, 0, 0]	n/a	0	1	0	n/a	n/a	0.0	0	0	0	FR2	0	R1112M
707.899	1.6	422893	WORD	n/a	wordpools/wordpool_EN.txt	STREET	6	0	6	[0, 0, 0]	n/a	0	1	0	n/a	n/a	0.0	0	0	0	FR2	0	R1112M
710.316	4.6	424102	STIM_ON	n/a	n/a	n/a	-999	0	6	[0, 0, 0]	n/a	1	1	4600	RAD1	RAD2	500.0	50	230	300	FR2	0	R1112M
710.532	1.6	424210	WORD	n/a	wordpools/wordpool_EN.txt	MUD	7	0	6	[0, 0, 0]	n/a	1	1	4600	RAD1	RAD2	500.0	50	230	300	FR2	0	R1112M
713.033	1.6	425460	WORD	n/a	wordpools/wordpool_EN.txt	SWAMP	8	0	6	[0, 0, 0]	n/a	1	1	4600	RAD1	RAD2	500.0	50	230	300	FR2	0	R1112M
715.549	1.6	426718	WORD	n/a	wordpools/wordpool_EN.txt	VINE	9	0	6	[0, 0, 0]	n/a	0	1	0	n/a	n/a	0.0	0	0	0	FR2	0	R1112M
718.051	1.6	427969	WORD	n/a	wordpools/wordpool_EN.txt	SKY	10	0	6	[0, 0, 0]	n/a	0	1	0	n/a	n/a	0.0	0	0	0	FR2	0	R1112M
720.334	4.6	429110	STIM_ON	n/a	n/a	n/a	-999	0	6	[0, 0, 0]	n/a	1	1	4600	RAD1	RAD2	500.0	50	230	300	FR2	0	R1112M
720.55	1.6	429218	WORD	n/a	wordpools/wordpool_EN.txt	EEL	11	1	6	[0, 0, 0]	n/a	1	1	4600	RAD1	RAD2	500.0	50	230	300	FR2	0	R1112M
723.068	1.6	430477	WORD	n/a	wordpools/wordpool_EN.txt	STAIR	12	0	6	[0, 0, 0]	n/a	1	1	4600	RAD1	RAD2	500.0	50	230	300	FR2	0	R1112M
724.684	0.001	431285	DISTRACT_START	n/a	n/a	n/a	-999	0	6	[0, 0, 0]	n/a	1	1	4600	RAD1	RAD2	500.0	50	230	300	FR2	0	R1112M
724.685	0.016	431286	START	n/a	n/a	n/a	-999	0	6	[-999, -999, -999]	n/a	0	1	0	n/a	n/a	0.0	0	0	0	FR2	0	R1112M
724.701	15.437	431294	PROB	15.411	n/a	n/a	-999	0	6	[4, 7, 6]	17	0	1	0	n/a	n/a	0.0	0	0	0	FR2	0	R1112M
740.138	12.75	439012	PROB	12.75	n/a	n/a	-999	0	6	[5, 2, 7]	14	0	1	0	n/a	n/a	0.0	0	0	0	FR2	0	R1112M
752.888	0.003	445386	STOP	n/a	n/a	n/a	-999	0	6	[-999, -999, -999]	n/a	0	1	0	n/a	n/a	0.0	0	0	0	FR2	0	R1112M
752.891	1.085	445388	DISTRACT_END	n/a	n/a	n/a	-999	0	6	[0, 0, 0]	n/a	0	1	0	n/a	n/a	0.0	0	0	0	FR2	0	R1112M
753.976	2.736	445930	REC_START	n/a	n/a	n/a	-999	0	6	[0, 0, 0]	n/a	0	1	0	n/a	n/a	0.0	0	0	0	FR2	0	R1112M
756.712	3.914	447298	REC_WORD	2.736	n/a	EEL	11	1	6	[0, 0, 0]	n/a	0	1	0	n/a	n/a	0.0	0	0	0	FR2	0	R1112M
760.626	23.344	449255	REC_WORD	6.65	n/a	SNAKE	4	1	6	[0, 0, 0]	n/a	0	1	0	n/a	n/a	0.0	0	0	0	FR2	0	R1112M
783.97	0.016	460927	REC_WORD_VV	29.994	n/a	<>	-999	0	6	[0, 0, 0]	n/a	0	1	0	n/a	n/a	0.0	0	0	0	FR2	0	R1112M
783.986	5.395	460935	REC_END	n/a	n/a	n/a	-999	0	6	[0, 0, 0]	n/a	0	1	0	n/a	n/a	0.0	0	0	0	FR2	0	R1112M
789.381	10.0	463632	COUNTDOWN_START	n/a	n/a	n/a	-999	0	7	[0, 0, 0]	n/a	0	1	0	n/a	n/a	0.0	0	0	0	FR2	0	R1112M
789.382	10.427	463632	TRIAL	n/a	n/a	n/a	-999	0	7	[0, 0, 0]	n/a	0	1	0	n/a	n/a	0.0	0	0	0	FR2	0	R1112M
799.809	0.008	468846	COUNTDOWN_END	n/a	n/a	n/a	-999	0	7	[0, 0, 0]	n/a	0	1	0	n/a	n/a	0.0	0	0	0	FR2	0	R1112M
799.817	1.6	468850	ORIENT	n/a	n/a	n/a	-999	0	7	[0, 0, 0]	n/a	0	1	0	n/a	n/a	0.0	0	0	0	FR2	0	R1112M
802.112	4.6	469997	STIM_ON	n/a	n/a	n/a	-999	0	7	[0, 0, 0]	n/a	1	1	4600	RAD1	RAD2	500.0	50	230	300	FR2	0	R1112M
802.317	1.6	470100	WORD	n/a	wordpools/wordpool_EN.txt	PIT	1	0	7	[0, 0, 0]	n/a	1	1	4600	RAD1	RAD2	500.0	50	230	300	FR2	0	R1112M
804.783	1.6	471333	WORD	n/a	wordpools/wordpool_EN.txt	HILL	2	0	7	[0, 0, 0]	n/a	1	1	4600	RAD1	RAD2	500.0	50	230	300	FR2	0	R1112M
807.318	1.6	472600	WORD	n/a	wordpools/wordpool_EN.txt	BROOM	3	0	7	[0, 0, 0]	n/a	0	1	0	n/a	n/a	0.0	0	0	0	FR2	0	R1112M
809.751	1.6	473816	WORD	n/a	wordpools/wordpool_EN.txt	ARK	4	0	7	[0, 0, 0]	n/a	0	1	0	n/a	n/a	0.0	0	0	0	FR2	0	R1112M
812.032	4.6	474957	STIM_ON	n/a	n/a	n/a	-999	0	7	[0, 0, 0]	n/a	1	1	4600	RAD1	RAD2	500.0	50	230	300	FR2	0	R1112M
812.236	1.6	475059	WORD	n/a	wordpools/wordpool_EN.txt	STRAW	5	0	7	[0, 0, 0]	n/a	1	1	4600	RAD1	RAD2	500.0	50	230	300	FR2	0	R1112M
814.719	1.6	476300	WORD	n/a	wordpools/wordpool_EN.txt	STONE	6	0	7	[0, 0, 0]	n/a	1	1	4600	RAD1	RAD2	500.0	50	230	300	FR2	0	R1112M
817.103	1.6	477492	WORD	n/a	wordpools/wordpool_EN.txt	TREE	7	1	7	[0, 0, 0]	n/a	0	1	0	n/a	n/a	0.0	0	0	0	FR2	0	R1112M
819.503	1.6	478692	WORD	n/a	wordpools/wordpool_EN.txt	SNOW	8	1	7	[0, 0, 0]	n/a	0	1	0	n/a	n/a	0.0	0	0	0	FR2	0	R1112M
821.793	4.6	479837	STIM_ON	n/a	n/a	n/a	-999	0	7	[0, 0, 0]	n/a	1	1	4600	RAD1	RAD2	500.0	50	230	300	FR2	0	R1112M
822.004	1.6	479943	WORD	n/a	wordpools/wordpool_EN.txt	OAK	9	0	7	[0, 0, 0]	n/a	1	1	4600	RAD1	RAD2	500.0	50	230	300	FR2	0	R1112M
824.454	1.6	481167	WORD	n/a	wordpools/wordpool_EN.txt	FACE	10	0	7	[0, 0, 0]	n/a	1	1	4600	RAD1	RAD2	500.0	50	230	300	FR2	0	R1112M
827.022	1.6	482451	WORD	n/a	wordpools/wordpool_EN.txt	NEST	11	1	7	[0, 0, 0]	n/a	0	1	0	n/a	n/a	0.0	0	0	0	FR2	0	R1112M
829.621	1.6	483751	WORD	n/a	wordpools/wordpool_EN.txt	LAWN	12	0	7	[0, 0, 0]	n/a	0	1	0	n/a	n/a	0.0	0	0	0	FR2	0	R1112M
831.223	0.001	484552	DISTRACT_START	n/a	n/a	n/a	-999	0	7	[0, 0, 0]	n/a	0	1	0	n/a	n/a	0.0	0	0	0	FR2	0	R1112M
831.224	0.015	484552	START	n/a	n/a	n/a	-999	0	7	[-999, -999, -999]	n/a	0	1	0	n/a	n/a	0.0	0	0	0	FR2	0	R1112M
831.239	10.152	484560	PROB	10.129	n/a	n/a	-999	0	7	[4, 8, 2]	14	0	1	0	n/a	n/a	0.0	0	0	0	FR2	0	R1112M
841.391	4.585	489635	PROB	4.553	n/a	n/a	-999	0	7	[1, 8, 2]	11	0	1	0	n/a	n/a	0.0	0	0	0	FR2	0	R1112M
845.976	7.392	491928	PROB	7.392	n/a	n/a	-999	0	7	[7, 7, 4]	18	0	1	0	n/a	n/a	0.0	0	0	0	FR2	0	R1112M
853.368	0.009	495624	STOP	n/a	n/a	n/a	-999	0	7	[-999, -999, -999]	n/a	0	1	0	n/a	n/a	0.0	0	0	0	FR2	0	R1112M
853.377	1.167	495628	DISTRACT_END	n/a	n/a	n/a	-999	0	7	[0, 0, 0]	n/a	0	1	0	n/a	n/a	0.0	0	0	0	FR2	0	R1112M
854.544	5.627	496212	REC_START	n/a	n/a	n/a	-999	0	7	[0, 0, 0]	n/a	0	1	0	n/a	n/a	0.0	0	0	0	FR2	0	R1112M
860.171	3.604	499025	REC_WORD	5.627	n/a	SNOW	8	1	7	[0, 0, 0]	n/a	0	1	0	n/a	n/a	0.0	0	0	0	FR2	0	R1112M
863.775	13.346	500827	REC_WORD	9.231	n/a	NEST	11	1	7	[0, 0, 0]	n/a	0	1	0	n/a	n/a	0.0	0	0	0	FR2	0	R1112M
877.121	7.434	507499	REC_WORD	22.577	n/a	TREE	7	1	7	[0, 0, 0]	n/a	0	1	0	n/a	n/a	0.0	0	0	0	FR2	0	R1112M
884.555	470.853	511216	REC_END	n/a	n/a	n/a	-999	0	7	[0, 0, 0]	n/a	0	1	0	n/a	n/a	0.0	0	0	0	FR2	0	R1112M
1355.408	0.0	746630	TRIAL	n/a	n/a	n/a	-999	0	8	[0, 0, 0]	n/a	0	1	0	n/a	n/a	0.0	0	0	0	FR2	0	R1112M
1355.408	10.0	746630	COUNTDOWN_START	n/a	n/a	n/a	-999	0	8	[0, 0, 0]	n/a	0	1	0	n/a	n/a	0.0	0	0	0	FR2	0	R1112M
1365.836	0.007	751843	COUNTDOWN_END	n/a	n/a	n/a	-999	0	8	[0, 0, 0]	n/a	0	1	0	n/a	n/a	0.0	0	0	0	FR2	0	R1112M
1365.843	1.6	751847	ORIENT	n/a	n/a	n/a	-999	0	8	[0, 0, 0]	n/a	0	1	0	n/a	n/a	0.0	0	0	0	FR2	0	R1112M
1368.132	4.6	752991	STIM_ON	n/a	n/a	n/a	-999	0	8	[0, 0, 0]	n/a	1	1	4600	RAD1	RAD2	500.0	50	230	300	FR2	0	R1112M
1368.344	1.6	753097	WORD	n/a	wordpools/wordpool_EN.txt	CLOCK	1	0	8	[0, 0, 0]	n/a	1	1	4600	RAD1	RAD2	500.0	50	230	300	FR2	0	R1112M
1370.911	1.6	754381	WORD	n/a	wordpools/wordpool_EN.txt	FENCE	2	0	8	[0, 0, 0]	n/a	1	1	4600	RAD1	RAD2	500.0	50	230	300	FR2	0	R1112M
1373.361	1.6	755606	WORD	n/a	wordpools/wordpool_EN.txt	WEED	3	0	8	[0, 0, 0]	n/a	0	1	0	n/a	n/a	0.0	0	0	0	FR2	0	R1112M
1375.862	1.6	756856	WORD	n/a	wordpools/wordpool_EN.txt	BENCH	4	0	8	[0, 0, 0]	n/a	0	1	0	n/a	n/a	0.0	0	0	0	FR2	0	R1112M
1378.156	4.6	758003	STIM_ON	n/a	n/a	n/a	-999	0	8	[0, 0, 0]	n/a	1	1	4600	RAD1	RAD2	500.0	50	230	300	FR2	0	R1112M
1378.362	1.6	758106	WORD	n/a	wordpools/wordpool_EN.txt	WALL	5	0	8	[0, 0, 0]	n/a	1	1	4600	RAD1	RAD2	500.0	50	230	300	FR2	0	R1112M
1380.946	1.6	759398	WORD	n/a	wordpools/wordpool_EN.txt	BAND	6	0	8	[0, 0, 0]	n/a	1	1	4600	RAD1	RAD2	500.0	50	230	300	FR2	0	R1112M
1383.562	1.6	760706	WORD	n/a	wordpools/wordpool_EN.txt	TOE	7	1	8	[0, 0, 0]	n/a	0	1	0	n/a	n/a	0.0	0	0	0	FR2	0	R1112M
1385.947	1.6	761898	WORD	n/a	wordpools/wordpool_EN.txt	HORN	8	0	8	[0, 0, 0]	n/a	0	1	0	n/a	n/a	0.0	0	0	0	FR2	0	R1112M
1388.126	4.6	762988	STIM_ON	n/a	n/a	n/a	-999	0	8	[0, 0, 0]	n/a	1	1	4600	RAD1	RAD2	500.0	50	230	300	FR2	0	R1112M
1388.331	1.6	763090	WORD	n/a	wordpools/wordpool_EN.txt	HAWK	9	0	8	[0, 0, 0]	n/a	1	1	4600	RAD1	RAD2	500.0	50	230	300	FR2	0	R1112M
1390.881	1.6	764365	WORD	n/a	wordpools/wordpool_EN.txt	NOSE	10	0	8	[0, 0, 0]	n/a	1	1	4600	RAD1	RAD2	500.0	50	230	300	FR2	0	R1112M
1393.398	1.6	765623	WORD	n/a	wordpools/wordpool_EN.txt	CLIFF	11	0	8	[0, 0, 0]	n/a	0	1	0	n/a	n/a	0.0	0	0	0	FR2	0	R1112M
1395.966	1.6	766907	WORD	n/a	wordpools/wordpool_EN.txt	HAND	12	0	8	[0, 0, 0]	n/a	0	1	0	n/a	n/a	0.0	0	0	0	FR2	0	R1112M
1397.582	0.001	767715	DISTRACT_START	n/a	n/a	n/a	-999	0	8	[0, 0, 0]	n/a	0	1	0	n/a	n/a	0.0	0	0	0	FR2	0	R1112M
1397.583	0.015	767716	START	n/a	n/a	n/a	-999	0	8	[-999, -999, -999]	n/a	0	1	0	n/a	n/a	0.0	0	0	0	FR2	0	R1112M
1397.598	13.604	767723	PROB	13.57	n/a	n/a	-999	0	8	[4, 7, 6]	17	0	1	0	n/a	n/a	0.0	0	0	0	FR2	0	R1112M
1411.202	7.453	774525	PROB	7.453	n/a	n/a	-999	0	8	[7, 2, 3]	12	0	1	0	n/a	n/a	0.0	0	0	0	FR2	0	R1112M
1418.655	0.014	778251	STOP	n/a	n/a	n/a	-999	0	8	[-999, -999, -999]	n/a	0	1	0	n/a	n/a	0.0	0	0	0	FR2	0	R1112M
1418.669	1.084	778258	DISTRACT_END	n/a	n/a	n/a	-999	0	8	[0, 0, 0]	n/a	0	1	0	n/a	n/a	0.0	0	0	0	FR2	0	R1112M
1419.753	7.352	778800	REC_START	n/a	n/a	n/a	-999	0	8	[0, 0, 0]	n/a	0	1	0	n/a	n/a	0.0	0	0	0	FR2	0	R1112M
1427.105	19.778	782476	REC_WORD	7.352	n/a	TOE	7	1	8	[0, 0, 0]	n/a	0	1	0	n/a	n/a	0.0	0	0	0	FR2	0	R1112M
1446.883	2.885	792364	REC_WORD	27.13	n/a	FOOT	-999	0	8	[0, 0, 0]	n/a	0	1	0	n/a	n/a	0.0	0	0	0	FR2	0	R1112M
1449.768	16.76	793807	REC_END	n/a	n/a	n/a	-999	0	8	[0, 0, 0]	n/a	0	1	0	n/a	n/a	0.0	0	0	0	FR2	0	R1112M
1466.528	10.0	802186	COUNTDOWN_START	n/a	n/a	n/a	-999	0	9	[0, 0, 0]	n/a	0	0	0	n/a	n/a	0.0	0	0	0	FR2	0	R1112M
1466.529	10.427	802187	TRIAL	n/a	n/a	n/a	-999	0	9	[0, 0, 0]	n/a	0	0	0	n/a	n/a	0.0	0	0	0	FR2	0	R1112M
1476.956	0.009	807400	COUNTDOWN_END	n/a	n/a	n/a	-999	0	9	[0, 0, 0]	n/a	0	0	0	n/a	n/a	0.0	0	0	0	FR2	0	R1112M
1476.965	1.6	807405	ORIENT	n/a	n/a	n/a	-999	0	9	[0, 0, 0]	n/a	0	0	0	n/a	n/a	0.0	0	0	0	FR2	0	R1112M
1479.348	1.6	808596	WORD	n/a	wordpools/wordpool_EN.txt	BLOOM	1	0	9	[0, 0, 0]	n/a	0	0	0	n/a	n/a	0.0	0	0	0	FR2	0	R1112M
1481.899	1.6	809871	WORD	n/a	wordpools/wordpool_EN.txt	BARN	2	0	9	[0, 0, 0]	n/a	0	0	0	n/a	n/a	0.0	0	0	0	FR2	0	R1112M
1484.299	1.6	811071	WORD	n/a	wordpools/wordpool_EN.txt	PEN	3	0	9	[0, 0, 0]	n/a	0	0	0	n/a	n/a	0.0	0	0	0	FR2	0	R1112M
1486.883	1.6	812363	WORD	n/a	wordpools/wordpool_EN.txt	WHEEL	4	0	9	[0, 0, 0]	n/a	0	0	0	n/a	n/a	0.0	0	0	0	FR2	0	R1112M
1489.483	1.6	813663	WORD	n/a	wordpools/wordpool_EN.txt	BRICK	5	0	9	[0, 0, 0]	n/a	0	0	0	n/a	n/a	0.0	0	0	0	FR2	0	R1112M
1491.967	1.6	814905	WORD	n/a	wordpools/wordpool_EN.txt	SALT	6	0	9	[0, 0, 0]	n/a	0	0	0	n/a	n/a	0.0	0	0	0	FR2	0	R1112M
1494.5	1.6	816172	WORD	n/a	wordpools/wordpool_EN.txt	MOLE	7	0	9	[0, 0, 0]	n/a	0	0	0	n/a	n/a	0.0	0	0	0	FR2	0	R1112M
1497.002	1.6	817423	WORD	n/a	wordpools/wordpool_EN.txt	MOTH	8	1	9	[0, 0, 0]	n/a	0	0	0	n/a	n/a	0.0	0	0	0	FR2	0	R1112M
1499.551	1.6	818697	WORD	n/a	wordpools/wordpool_EN.txt	DOG	9	1	9	[0, 0, 0]	n/a	0	0	0	n/a	n/a	0.0	0	0	0	FR2	0	R1112M
1501.969	1.6	819906	WORD	n/a	wordpools/wordpool_EN.txt	FLEA	10	0	9	[0, 0, 0]	n/a	0	0	0	n/a	n/a	0.0	0	0	0	FR2	0	R1112M
1504.37	1.6	821106	WORD	n/a	wordpools/wordpool_EN.txt	STEAM	11	0	9	[0, 0, 0]	n/a	0	0	0	n/a	n/a	0.0	0	0	0	FR2	0	R1112M
1506.854	1.6	822348	WORD	n/a	wordpools/wordpool_EN.txt	KITE	12	0	9	[0, 0, 0]	n/a	0	0	0	n/a	n/a	0.0	0	0	0	FR2	0	R1112M
1508.47	0.001	823156	DISTRACT_START	n/a	n/a	n/a	-999	0	9	[0, 0, 0]	n/a	0	0	0	n/a	n/a	0.0	0	0	0	FR2	0	R1112M
1508.471	0.015	823157	START	n/a	n/a	n/a	-999	0	9	[-999, -999, -999]	n/a	0	0	0	n/a	n/a	0.0	0	0	0	FR2	0	R1112M
1508.486	21.642	823164	PROB	21.642	n/a	n/a	-999	0	9	[6, 3, 8]	17	0	0	0	n/a	n/a	0.0	0	0	0	FR2	0	R1112M
1530.128	0.014	833985	STOP	n/a	n/a	n/a	-999	0	9	[-999, -999, -999]	n/a	0	0	0	n/a	n/a	0.0	0	0	0	FR2	0	R1112M
1530.142	1.117	833992	DISTRACT_END	n/a	n/a	n/a	-999	0	9	[0, 0, 0]	n/a	0	0	0	n/a	n/a	0.0	0	0	0	FR2	0	R1112M
1531.259	3.955	834550	REC_START	n/a	n/a	n/a	-999	0	9	[0, 0, 0]	n/a	0	0	0	n/a	n/a	0.0	0	0	0	FR2	0	R1112M
1535.214	6.087	836527	REC_WORD	3.955	n/a	DOG	9	1	9	[0, 0, 0]	n/a	0	0	0	n/a	n/a	0.0	0	0	0	FR2	0	R1112M
1541.301	19.968	839571	REC_WORD	10.042	n/a	MOTH	8	1	9	[0, 0, 0]	n/a	0	0	0	n/a	n/a	0.0	0	0	0	FR2	0	R1112M
1561.269	5.796	849554	REC_END	n/a	n/a	n/a	-999	0	9	[0, 0, 0]	n/a	0	0	0	n/a	n/a	0.0	0	0	0	FR2	0	R1112M
1567.065	10.0	852452	COUNTDOWN_START	n/a	n/a	n/a	-999	0	10	[0, 0, 0]	n/a	0	1	0	n/a	n/a	0.0	0	0	0	FR2	0	R1112M
1567.066	10.427	852453	TRIAL	n/a	n/a	n/a	-999	0	10	[0, 0, 0]	n/a	0	1	0	n/a	n/a	0.0	0	0	0	FR2	0	R1112M
1577.493	0.007	857666	COUNTDOWN_END	n/a	n/a	n/a	-999	0	10	[0, 0, 0]	n/a	0	1	0	n/a	n/a	0.0	0	0	0	FR2	0	R1112M
1577.5	1.6	857669	ORIENT	n/a	n/a	n/a	-999	0	10	[0, 0, 0]	n/a	0	1	0	n/a	n/a	0.0	0	0	0	FR2	0	R1112M
1580.118	1.6	858978	WORD	n/a	wordpools/wordpool_EN.txt	CLOUD	1	0	10	[0, 0, 0]	n/a	0	1	0	n/a	n/a	0.0	0	0	0	FR2	0	R1112M
1582.551	1.6	860195	WORD	n/a	wordpools/wordpool_EN.txt	JUDGE	2	0	10	[0, 0, 0]	n/a	0	1	0	n/a	n/a	0.0	0	0	0	FR2	0	R1112M
1584.876	4.6	861357	STIM_ON	n/a	n/a	n/a	-999	0	10	[0, 0, 0]	n/a	1	1	4600	RAD1	RAD2	500.0	50	230	300	FR2	0	R1112M
1585.086	1.6	861462	WORD	n/a	wordpools/wordpool_EN.txt	WHALE	3	1	10	[0, 0, 0]	n/a	1	1	4600	RAD1	RAD2	500.0	50	230	300	FR2	0	R1112M
1587.685	1.6	862761	WORD	n/a	wordpools/wordpool_EN.txt	HORSE	4	1	10	[0, 0, 0]	n/a	1	1	4600	RAD1	RAD2	500.0	50	230	300	FR2	0	R1112M
1590.236	1.6	864037	WORD	n/a	wordpools/wordpool_EN.txt	BEACH	5	0	10	[0, 0, 0]	n/a	0	1	0	n/a	n/a	0.0	0	0	0	FR2	0	R1112M
1592.753	1.6	865295	WORD	n/a	wordpools/wordpool_EN.txt	STAR	6	0	10	[0, 0, 0]	n/a	0	1	0	n/a	n/a	0.0	0	0	0	FR2	0	R1112M
1594.926	4.6	866382	STIM_ON	n/a	n/a	n/a	-999	0	10	[0, 0, 0]	n/a	1	1	4600	RAD1	RAD2	500.0	50	230	300	FR2	0	R1112M
1595.137	1.6	866487	WORD	n/a	wordpools/wordpool_EN.txt	WAVE	7	0	10	[0, 0, 0]	n/a	1	1	4600	RAD1	RAD2	500.0	50	230	300	FR2	0	R1112M
1597.637	1.6	867737	WORD	n/a	wordpools/wordpool_EN.txt	SMOKE	8	0	10	[0, 0, 0]	n/a	1	1	4600	RAD1	RAD2	500.0	50	230	300	FR2	0	R1112M
1600.038	1.6	868938	WORD	n/a	wordpools/wordpool_EN.txt	HEN	9	0	10	[0, 0, 0]	n/a	0	1	0	n/a	n/a	0.0	0	0	0	FR2	0	R1112M
1602.471	1.6	870154	WORD	n/a	wordpools/wordpool_EN.txt	HEART	10	0	10	[0, 0, 0]	n/a	0	1	0	n/a	n/a	0.0	0	0	0	FR2	0	R1112M
1604.709	4.6	871273	STIM_ON	n/a	n/a	n/a	-999	0	10	[0, 0, 0]	n/a	1	1	4600	RAD1	RAD2	500.0	50	230	300	FR2	0	R1112M
1604.923	1.6	871380	WORD	n/a	wordpools/wordpool_EN.txt	GLOVE	11	0	10	[0, 0, 0]	n/a	1	1	4600	RAD1	RAD2	500.0	50	230	300	FR2	0	R1112M
1607.456	1.6	872646	WORD	n/a	wordpools/wordpool_EN.txt	VEST	12	0	10	[0, 0, 0]	n/a	1	1	4600	RAD1	RAD2	500.0	50	230	300	FR2	0	R1112M
1609.074	0.001	873455	DISTRACT_START	n/a	n/a	n/a	-999	0	10	[0, 0, 0]	n/a	1	1	4600	RAD1	RAD2	500.0	50	230	300	FR2	0	R1112M
1609.075	0.015	873456	START	n/a	n/a	n/a	-999	0	10	[-999, -999, -999]	n/a	0	1	0	n/a	n/a	0.0	0	0	0	FR2	0	R1112M
1609.09	9.002	873463	PROB	8.982	n/a	n/a	-999	0	10	[1, 3, 6]	10	0	1	0	n/a	n/a	0.0	0	0	0	FR2	0	R1112M
1618.092	7.735	877964	PROB	7.708	n/a	n/a	-999	0	10	[3, 6, 2]	11	0	1	0	n/a	n/a	0.0	0	0	0	FR2	0	R1112M
1625.827	9.125	881831	PROB	9.125	n/a	n/a	-999	0	10	[3, 8, 7]	18	0	1	0	n/a	n/a	0.0	0	0	0	FR2	0	R1112M
1634.952	0.01	886394	STOP	n/a	n/a	n/a	-999	0	10	[-999, -999, -999]	n/a	0	1	0	n/a	n/a	0.0	0	0	0	FR2	0	R1112M
1634.962	1.217	886399	DISTRACT_END	n/a	n/a	n/a	-999	0	10	[0, 0, 0]	n/a	0	1	0	n/a	n/a	0.0	0	0	0	FR2	0	R1112M
1636.179	5.847	887007	REC_START	n/a	n/a	n/a	-999	0	10	[0, 0, 0]	n/a	0	1	0	n/a	n/a	0.0	0	0	0	FR2	0	R1112M
1642.026	4.157	889930	REC_WORD	5.847	n/a	HORSE	4	1	10	[0, 0, 0]	n/a	0	1	0	n/a	n/a	0.0	0	0	0	FR2	0	R1112M
1646.183	20.008	892009	REC_WORD	10.004	n/a	WHALE	3	1	10	[0, 0, 0]	n/a	0	1	0	n/a	n/a	0.0	0	0	0	FR2	0	R1112M
1666.191	4.327	902012	REC_END	n/a	n/a	n/a	-999	0	10	[0, 0, 0]	n/a	0	1	0	n/a	n/a	0.0	0	0	0	FR2	0	R1112M
1670.518	0.0	904176	TRIAL	n/a	n/a	n/a	-999	0	11	[0, 0, 0]	n/a	0	1	0	n/a	n/a	0.0	0	0	0	FR2	0	R1112M
1670.518	10.0	904176	COUNTDOWN_START	n/a	n/a	n/a	-999	0	11	[0, 0, 0]	n/a	0	1	0	n/a	n/a	0.0	0	0	0	FR2	0	R1112M
1680.946	0.008	909389	COUNTDOWN_END	n/a	n/a	n/a	-999	0	11	[0, 0, 0]	n/a	0	1	0	n/a	n/a	0.0	0	0	0	FR2	0	R1112M
1680.954	1.6	909393	ORIENT	n/a	n/a	n/a	-999	0	11	[0, 0, 0]	n/a	0	1	0	n/a	n/a	0.0	0	0	0	FR2	0	R1112M
1683.338	4.6	910585	STIM_ON	n/a	n/a	n/a	-999	0	11	[0, 0, 0]	n/a	1	1	4600	RAD1	RAD2	500.0	50	230	300	FR2	0	R1112M
1683.554	1.6	910693	WORD	n/a	wordpools/wordpool_EN.txt	MAP	1	0	11	[0, 0, 0]	n/a	1	1	4600	RAD1	RAD2	500.0	50	230	300	FR2	0	R1112M
1685.955	1.6	911894	WORD	n/a	wordpools/wordpool_EN.txt	CORN	2	0	11	[0, 0, 0]	n/a	1	1	4600	RAD1	RAD2	500.0	50	230	300	FR2	0	R1112M
1688.488	1.6	913160	WORD	n/a	wordpools/wordpool_EN.txt	ROSE	3	0	11	[0, 0, 0]	n/a	0	1	0	n/a	n/a	0.0	0	0	0	FR2	0	R1112M
1691.006	1.6	914419	WORD	n/a	wordpools/wordpool_EN.txt	ELF	4	0	11	[0, 0, 0]	n/a	0	1	0	n/a	n/a	0.0	0	0	0	FR2	0	R1112M
1693.297	4.6	915565	STIM_ON	n/a	n/a	n/a	-999	0	11	[0, 0, 0]	n/a	1	1	4600	RAD1	RAD2	500.0	50	230	300	FR2	0	R1112M
1693.506	1.6	915669	WORD	n/a	wordpools/wordpool_EN.txt	CAPE	5	0	11	[0, 0, 0]	n/a	1	1	4600	RAD1	RAD2	500.0	50	230	300	FR2	0	R1112M
1696.041	1.6	916936	WORD	n/a	wordpools/wordpool_EN.txt	NET	6	0	11	[0, 0, 0]	n/a	1	1	4600	RAD1	RAD2	500.0	50	230	300	FR2	0	R1112M
1698.59	1.6	918211	WORD	n/a	wordpools/wordpool_EN.txt	SEA	7	0	11	[0, 0, 0]	n/a	0	1	0	n/a	n/a	0.0	0	0	0	FR2	0	R1112M
1700.975	1.6	919403	WORD	n/a	wordpools/wordpool_EN.txt	SHEET	8	0	11	[0, 0, 0]	n/a	0	1	0	n/a	n/a	0.0	0	0	0	FR2	0	R1112M
1703.152	4.6	920492	STIM_ON	n/a	n/a	n/a	-999	0	11	[0, 0, 0]	n/a	1	1	4600	RAD1	RAD2	500.0	50	230	300	FR2	0	R1112M
1703.358	1.6	920595	WORD	n/a	wordpools/wordpool_EN.txt	GOLD	9	0	11	[0, 0, 0]	n/a	1	1	4600	RAD1	RAD2	500.0	50	230	300	FR2	0	R1112M
1705.809	1.6	921820	WORD	n/a	wordpools/wordpool_EN.txt	CLAY	10	0	11	[0, 0, 0]	n/a	1	1	4600	RAD1	RAD2	500.0	50	230	300	FR2	0	R1112M
1708.193	1.6	923012	WORD	n/a	wordpools/wordpool_EN.txt	PEARL	11	0	11	[0, 0, 0]	n/a	0	1	0	n/a	n/a	0.0	0	0	0	FR2	0	R1112M
1710.81	1.6	924321	WORD	n/a	wordpools/wordpool_EN.txt	COIN	12	0	11	[0, 0, 0]	n/a	0	1	0	n/a	n/a	0.0	0	0	0	FR2	0	R1112M
1712.426	0.001	925128	DISTRACT_START	n/a	n/a	n/a	-999	0	11	[0, 0, 0]	n/a	0	1	0	n/a	n/a	0.0	0	0	0	FR2	0	R1112M
1712.427	0.016	925129	START	n/a	n/a	n/a	-999	0	11	[-999, -999, -999]	n/a	0	1	0	n/a	n/a	0.0	0	0	0	FR2	0	R1112M
1712.443	7.519	925137	PROB	7.493	n/a	n/a	-999	0	11	[1, 2, 6]	9	0	1	0	n/a	n/a	0.0	0	0	0	FR2	0	R1112M
1719.962	14.998	928896	PROB	14.998	n/a	n/a	-999	0	11	[9, 5, 7]	21	0	1	0	n/a	n/a	0.0	0	0	0	FR2	0	R1112M
1734.96	0.004	936395	STOP	n/a	n/a	n/a	-999	0	11	[-999, -999, -999]	n/a	0	1	0	n/a	n/a	0.0	0	0	0	FR2	0	R1112M
1734.964	1.085	936397	DISTRACT_END	n/a	n/a	n/a	-999	0	11	[0, 0, 0]	n/a	0	1	0	n/a	n/a	0.0	0	0	0	FR2	0	R1112M
1736.049	30.0	936939	REC_START	n/a	n/a	n/a	-999	0	11	[0, 0, 0]	n/a	0	1	0	n/a	n/a	0.0	0	0	0	FR2	0	R1112M
1766.049	0.011	951938	REC_WORD_VV	30.0	n/a	<>	-999	0	11	[0, 0, 0]	n/a	0	1	0	n/a	n/a	0.0	0	0	0	FR2	0	R1112M
1766.06	4.078	951944	REC_END	n/a	n/a	n/a	-999	0	11	[0, 0, 0]	n/a	0	1	0	n/a	n/a	0.0	0	0	0	FR2	0	R1112M
1770.138	0.0	953983	TRIAL	n/a	n/a	n/a	-999	0	12	[0, 0, 0]	n/a	0	0	0	n/a	n/a	0.0	0	0	0	FR2	0	R1112M
1770.138	10.0	953983	COUNTDOWN_START	n/a	n/a	n/a	-999	0	12	[0, 0, 0]	n/a	0	0	0	n/a	n/a	0.0	0	0	0	FR2	0	R1112M
1780.566	0.006	959197	COUNTDOWN_END	n/a	n/a	n/a	-999	0	12	[0, 0, 0]	n/a	0	0	0	n/a	n/a	0.0	0	0	0	FR2	0	R1112M
1780.572	1.6	959200	ORIENT	n/a	n/a	n/a	-999	0	12	[0, 0, 0]	n/a	0	0	0	n/a	n/a	0.0	0	0	0	FR2	0	R1112M
1783.141	1.6	960484	WORD	n/a	wordpools/wordpool_EN.txt	FOX	1	1	12	[0, 0, 0]	n/a	0	0	0	n/a	n/a	0.0	0	0	0	FR2	0	R1112M
1785.54	1.6	961683	WORD	n/a	wordpools/wordpool_EN.txt	TENT	2	0	12	[0, 0, 0]	n/a	0	0	0	n/a	n/a	0.0	0	0	0	FR2	0	R1112M
1788.142	1.6	962984	WORD	n/a	wordpools/wordpool_EN.txt	PIE	3	0	12	[0, 0, 0]	n/a	0	0	0	n/a	n/a	0.0	0	0	0	FR2	0	R1112M
1790.741	1.6	964284	WORD	n/a	wordpools/wordpool_EN.txt	CAVE	4	0	12	[0, 0, 0]	n/a	0	0	0	n/a	n/a	0.0	0	0	0	FR2	0	R1112M
1793.259	1.6	965543	WORD	n/a	wordpools/wordpool_EN.txt	SOUP	5	0	12	[0, 0, 0]	n/a	0	0	0	n/a	n/a	0.0	0	0	0	FR2	0	R1112M
1795.709	1.6	966768	WORD	n/a	wordpools/wordpool_EN.txt	STICK	6	0	12	[0, 0, 0]	n/a	0	0	0	n/a	n/a	0.0	0	0	0	FR2	0	R1112M
1798.26	1.6	968043	WORD	n/a	wordpools/wordpool_EN.txt	MOOSE	7	0	12	[0, 0, 0]	n/a	0	0	0	n/a	n/a	0.0	0	0	0	FR2	0	R1112M
1800.776	1.6	969301	WORD	n/a	wordpools/wordpool_EN.txt	SKUNK	8	0	12	[0, 0, 0]	n/a	0	0	0	n/a	n/a	0.0	0	0	0	FR2	0	R1112M
1803.278	1.6	970552	WORD	n/a	wordpools/wordpool_EN.txt	SEAL	9	0	12	[0, 0, 0]	n/a	0	0	0	n/a	n/a	0.0	0	0	0	FR2	0	R1112M
1805.895	1.6	971860	WORD	n/a	wordpools/wordpool_EN.txt	BREAD	10	0	12	[0, 0, 0]	n/a	0	0	0	n/a	n/a	0.0	0	0	0	FR2	0	R1112M
1808.495	1.6	973160	WORD	n/a	wordpools/wordpool_EN.txt	GATE	11	0	12	[0, 0, 0]	n/a	0	0	0	n/a	n/a	0.0	0	0	0	FR2	0	R1112M
1811.046	1.6	974436	WORD	n/a	wordpools/wordpool_EN.txt	TAIL	12	0	12	[0, 0, 0]	n/a	0	0	0	n/a	n/a	0.0	0	0	0	FR2	0	R1112M
1812.662	0.001	975244	DISTRACT_START	n/a	n/a	n/a	-999	0	12	[0, 0, 0]	n/a	0	0	0	n/a	n/a	0.0	0	0	0	FR2	0	R1112M
1812.663	0.016	975244	START	n/a	n/a	n/a	-999	0	12	[-999, -999, -999]	n/a	0	0	0	n/a	n/a	0.0	0	0	0	FR2	0	R1112M
1812.679	6.369	975252	PROB	6.345	n/a	n/a	-999	0	12	[2, 7, 7]	16	0	0	0	n/a	n/a	0.0	0	0	0	FR2	0	R1112M
1819.048	5.901	978436	PROB	5.88	n/a	n/a	-999	0	12	[3, 6, 6]	15	0	0	0	n/a	n/a	0.0	0	0	0	FR2	0	R1112M
1824.949	6.151	981387	PROB	6.123	n/a	n/a	-999	0	12	[9, 9, 3]	21	0	0	0	n/a	n/a	0.0	0	0	0	FR2	0	R1112M
1831.1	4.643	984462	PROB	4.643	n/a	n/a	-999	0	12	[7, 5, 5]	17	0	0	0	n/a	n/a	0.0	0	0	0	FR2	0	R1112M
1835.743	0.007	986784	STOP	n/a	n/a	n/a	-999	0	12	[-999, -999, -999]	n/a	0	0	0	n/a	n/a	0.0	0	0	0	FR2	0	R1112M
1835.75	1.152	986787	DISTRACT_END	n/a	n/a	n/a	-999	0	12	[0, 0, 0]	n/a	0	0	0	n/a	n/a	0.0	0	0	0	FR2	0	R1112M
1836.902	1.71	987363	REC_START	n/a	n/a	n/a	-999	0	12	[0, 0, 0]	n/a	0	0	0	n/a	n/a	0.0	0	0	0	FR2	0	R1112M
1838.612	28.3	988218	REC_WORD	1.71	n/a	FOX	1	1	12	[0, 0, 0]	n/a	0	0	0	n/a	n/a	0.0	0	0	0	FR2	0	R1112M
1866.912	5.811	1002367	REC_END	n/a	n/a	n/a	-999	0	12	[0, 0, 0]	n/a	0	0	0	n/a	n/a	0.0	0	0	0	FR2	0	R1112M
1872.723	10.0	1005272	COUNTDOWN_START	n/a	n/a	n/a	-999	0	13	[0, 0, 0]	n/a	0	1	0	n/a	n/a	0.0	0	0	0	FR2	0	R1112M
1872.724	10.427	1005273	TRIAL	n/a	n/a	n/a	-999	0	13	[0, 0, 0]	n/a	0	1	0	n/a	n/a	0.0	0	0	0	FR2	0	R1112M
1883.151	0.009	1010486	COUNTDOWN_END	n/a	n/a	n/a	-999	0	13	[0, 0, 0]	n/a	0	1	0	n/a	n/a	0.0	0	0	0	FR2	0	R1112M
1883.16	1.6	1010491	ORIENT	n/a	n/a	n/a	-999	0	13	[0, 0, 0]	n/a	0	1	0	n/a	n/a	0.0	0	0	0	FR2	0	R1112M
1885.559	1.6	1011690	WORD	n/a	wordpools/wordpool_EN.txt	BOX	1	1	13	[0, 0, 0]	n/a	0	1	0	n/a	n/a	0.0	0	0	0	FR2	0	R1112M
1888.128	1.6	1012975	WORD	n/a	wordpools/wordpool_EN.txt	DOOR	2	0	13	[0, 0, 0]	n/a	0	1	0	n/a	n/a	0.0	0	0	0	FR2	0	R1112M
1890.304	4.6	1014062	STIM_ON	n/a	n/a	n/a	-999	0	13	[0, 0, 0]	n/a	1	1	4600	RAD1	RAD2	500.0	50	230	300	FR2	0	R1112M
1890.51	1.6	1014165	WORD	n/a	wordpools/wordpool_EN.txt	COUCH	3	0	13	[0, 0, 0]	n/a	1	1	4600	RAD1	RAD2	500.0	50	230	300	FR2	0	R1112M
1893.012	1.6	1015416	WORD	n/a	wordpools/wordpool_EN.txt	SLEEVE	4	0	13	[0, 0, 0]	n/a	1	1	4600	RAD1	RAD2	500.0	50	230	300	FR2	0	R1112M
1895.578	1.6	1016699	WORD	n/a	wordpools/wordpool_EN.txt	PASTE	5	0	13	[0, 0, 0]	n/a	0	1	0	n/a	n/a	0.0	0	0	0	FR2	0	R1112M
1897.963	1.6	1017892	WORD	n/a	wordpools/wordpool_EN.txt	CHALK	6	0	13	[0, 0, 0]	n/a	0	1	0	n/a	n/a	0.0	0	0	0	FR2	0	R1112M
1900.237	4.6	1019029	STIM_ON	n/a	n/a	n/a	-999	0	13	[0, 0, 0]	n/a	1	1	4600	RAD1	RAD2	500.0	50	230	300	FR2	0	R1112M
1900.446	1.6	1019133	WORD	n/a	wordpools/wordpool_EN.txt	CAGE	7	0	13	[0, 0, 0]	n/a	1	1	4600	RAD1	RAD2	500.0	50	230	300	FR2	0	R1112M
1902.847	1.6	1020334	WORD	n/a	wordpools/wordpool_EN.txt	CUP	8	0	13	[0, 0, 0]	n/a	1	1	4600	RAD1	RAD2	500.0	50	230	300	FR2	0	R1112M
1905.347	1.6	1021584	WORD	n/a	wordpools/wordpool_EN.txt	LEG	9	0	13	[0, 0, 0]	n/a	0	1	0	n/a	n/a	0.0	0	0	0	FR2	0	R1112M
1907.798	1.6	1022809	WORD	n/a	wordpools/wordpool_EN.txt	CART	10	0	13	[0, 0, 0]	n/a	0	1	0	n/a	n/a	0.0	0	0	0	FR2	0	R1112M
1910.191	4.6	1024005	STIM_ON	n/a	n/a	n/a	-999	0	13	[0, 0, 0]	n/a	1	1	4600	RAD1	RAD2	500.0	50	230	300	FR2	0	R1112M
1910.399	1.6	1024109	WORD	n/a	wordpools/wordpool_EN.txt	STOOL	11	0	13	[0, 0, 0]	n/a	1	1	4600	RAD1	RAD2	500.0	50	230	300	FR2	0	R1112M
1912.849	1.6	1025334	WORD	n/a	wordpools/wordpool_EN.txt	DART	12	0	13	[0, 0, 0]	n/a	1	1	4600	RAD1	RAD2	500.0	50	230	300	FR2	0	R1112M
1914.465	0.001	1026142	DISTRACT_START	n/a	n/a	n/a	-999	0	13	[0, 0, 0]	n/a	1	1	4600	RAD1	RAD2	500.0	50	230	300	FR2	0	R1112M
1914.466	0.016	1026143	START	n/a	n/a	n/a	-999	0	13	[-999, -999, -999]	n/a	0	1	0	n/a	n/a	0.0	0	0	0	FR2	0	R1112M
1914.482	7.118	1026151	PROB	7.085	n/a	n/a	-999	0	13	[1, 5, 5]	11	0	1	0	n/a	n/a	0.0	0	0	0	FR2	0	R1112M
1921.6	9.636	1029710	PROB	9.616	n/a	n/a	-999	0	13	[9, 3, 4]	16	0	1	0	n/a	n/a	0.0	0	0	0	FR2	0	R1112M
1931.236	9.932	1034527	PROB	9.932	n/a	n/a	-999	0	13	[4, 4, 7]	15	0	1	0	n/a	n/a	0.0	0	0	0	FR2	0	R1112M
1941.168	0.003	1039493	STOP	n/a	n/a	n/a	-999	0	13	[-999, -999, -999]	n/a	0	1	0	n/a	n/a	0.0	0	0	0	FR2	0	R1112M
1941.171	1.101	1039495	DISTRACT_END	n/a	n/a	n/a	-999	0	13	[0, 0, 0]	n/a	0	1	0	n/a	n/a	0.0	0	0	0	FR2	0	R1112M
1942.272	2.294	1040045	REC_START	n/a	n/a	n/a	-999	0	13	[0, 0, 0]	n/a	0	1	0	n/a	n/a	0.0	0	0	0	FR2	0	R1112M
1944.566	8.816	1041192	REC_WORD	2.294	n/a	BOX	1	1	13	[0, 0, 0]	n/a	0	1	0	n/a	n/a	0.0	0	0	0	FR2	0	R1112M
1953.382	18.899	1045600	REC_WORD	11.11	n/a	TOY	-999	0	13	[0, 0, 0]	n/a	0	1	0	n/a	n/a	0.0	0	0	0	FR2	0	R1112M
1972.281	9.115	1055049	REC_END	n/a	n/a	n/a	-999	0	13	[0, 0, 0]	n/a	0	1	0	n/a	n/a	0.0	0	0	0	FR2	0	R1112M
1981.396	10.0	1059606	COUNTDOWN_START	n/a	n/a	n/a	-999	0	14	[0, 0, 0]	n/a	0	1	0	n/a	n/a	0.0	0	0	0	FR2	0	R1112M
1981.396	10.428	1059606	TRIAL	n/a	n/a	n/a	-999	0	14	[0, 0, 0]	n/a	0	1	0	n/a	n/a	0.0	0	0	0	FR2	0	R1112M
1991.824	0.007	1064820	COUNTDOWN_END	n/a	n/a	n/a	-999	0	14	[0, 0, 0]	n/a	0	1	0	n/a	n/a	0.0	0	0	0	FR2	0	R1112M
1991.831	1.6	1064823	ORIENT	n/a	n/a	n/a	-999	0	14	[0, 0, 0]	n/a	0	1	0	n/a	n/a	0.0	0	0	0	FR2	0	R1112M
1994.084	4.6	1065950	STIM_ON	n/a	n/a	n/a	-999	0	14	[0, 0, 0]	n/a	1	1	4600	RAD1	RAD2	500.0	50	230	300	FR2	0	R1112M
1994.298	1.6	1066057	WORD	n/a	wordpools/wordpool_EN.txt	CASH	1	0	14	[0, 0, 0]	n/a	1	1	4600	RAD1	RAD2	500.0	50	230	300	FR2	0	R1112M
1996.748	1.6	1067281	WORD	n/a	wordpools/wordpool_EN.txt	TOOTH	2	0	14	[0, 0, 0]	n/a	1	1	4600	RAD1	RAD2	500.0	50	230	300	FR2	0	R1112M
1999.333	1.6	1068574	WORD	n/a	wordpools/wordpool_EN.txt	SPONGE	3	0	14	[0, 0, 0]	n/a	0	1	0	n/a	n/a	0.0	0	0	0	FR2	0	R1112M
2001.816	1.6	1069815	WORD	n/a	wordpools/wordpool_EN.txt	WORLD	4	0	14	[0, 0, 0]	n/a	0	1	0	n/a	n/a	0.0	0	0	0	FR2	0	R1112M
2004.233	4.6	1071024	STIM_ON	n/a	n/a	n/a	-999	0	14	[0, 0, 0]	n/a	1	1	4600	RAD1	RAD2	500.0	50	230	300	FR2	0	R1112M
2004.449	1.6	1071132	WORD	n/a	wordpools/wordpool_EN.txt	SEED	5	0	14	[0, 0, 0]	n/a	1	1	4600	RAD1	RAD2	500.0	50	230	300	FR2	0	R1112M
2007.067	1.6	1072441	WORD	n/a	wordpools/wordpool_EN.txt	BRUSH	6	0	14	[0, 0, 0]	n/a	1	1	4600	RAD1	RAD2	500.0	50	230	300	FR2	0	R1112M
2009.45	1.6	1073632	WORD	n/a	wordpools/wordpool_EN.txt	BANK	7	0	14	[0, 0, 0]	n/a	0	1	0	n/a	n/a	0.0	0	0	0	FR2	0	R1112M
2011.985	1.6	1074900	WORD	n/a	wordpools/wordpool_EN.txt	ANT	8	0	14	[0, 0, 0]	n/a	0	1	0	n/a	n/a	0.0	0	0	0	FR2	0	R1112M
2014.177	4.6	1075995	STIM_ON	n/a	n/a	n/a	-999	0	14	[0, 0, 0]	n/a	1	1	4600	RAD1	RAD2	500.0	50	230	300	FR2	0	R1112M
2014.386	1.6	1076100	WORD	n/a	wordpools/wordpool_EN.txt	LEAF	9	0	14	[0, 0, 0]	n/a	1	1	4600	RAD1	RAD2	500.0	50	230	300	FR2	0	R1112M
2016.903	1.6	1077358	WORD	n/a	wordpools/wordpool_EN.txt	BRANCH	10	0	14	[0, 0, 0]	n/a	1	1	4600	RAD1	RAD2	500.0	50	230	300	FR2	0	R1112M
2019.403	1.6	1078608	WORD	n/a	wordpools/wordpool_EN.txt	CORD	11	0	14	[0, 0, 0]	n/a	0	1	0	n/a	n/a	0.0	0	0	0	FR2	0	R1112M
2021.937	1.6	1079875	WORD	n/a	wordpools/wordpool_EN.txt	STEM	12	0	14	[0, 0, 0]	n/a	0	1	0	n/a	n/a	0.0	0	0	0	FR2	0	R1112M
2023.553	0.001	1080683	DISTRACT_START	n/a	n/a	n/a	-999	0	14	[0, 0, 0]	n/a	0	1	0	n/a	n/a	0.0	0	0	0	FR2	0	R1112M
2023.554	0.016	1080684	START	n/a	n/a	n/a	-999	0	14	[-999, -999, -999]	n/a	0	1	0	n/a	n/a	0.0	0	0	0	FR2	0	R1112M
2023.57	4.934	1080692	PROB	4.901	n/a	n/a	-999	0	14	[2, 1, 2]	5	0	1	0	n/a	n/a	0.0	0	0	0	FR2	0	R1112M
2028.504	18.079	1083159	PROB	18.079	n/a	n/a	-999	0	14	[7, 9, 6]	22	0	1	0	n/a	n/a	0.0	0	0	0	FR2	0	R1112M
2046.583	0.008	1092198	STOP	n/a	n/a	n/a	-999	0	14	[-999, -999, -999]	n/a	0	1	0	n/a	n/a	0.0	0	0	0	FR2	0	R1112M
2046.591	1.167	1092202	DISTRACT_END	n/a	n/a	n/a	-999	0	14	[0, 0, 0]	n/a	0	1	0	n/a	n/a	0.0	0	0	0	FR2	0	R1112M
2047.758	30.011	1092785	REC_START	n/a	n/a	n/a	-999	0	14	[0, 0, 0]	n/a	0	1	0	n/a	n/a	0.0	0	0	0	FR2	0	R1112M
2077.769	0.004	1107790	REC_WORD_VV	30.011	n/a	<>	-999	0	14	[0, 0, 0]	n/a	0	1	0	n/a	n/a	0.0	0	0	0	FR2	0	R1112M
2077.773	5.192	1107792	REC_END	n/a	n/a	n/a	-999	0	14	[0, 0, 0]	n/a	0	1	0	n/a	n/a	0.0	0	0	0	FR2	0	R1112M
2082.965	10.0	1110388	COUNTDOWN_START	n/a	n/a	n/a	-999	0	15	[0, 0, 0]	n/a	0	1	0	n/a	n/a	0.0	0	0	0	FR2	0	R1112M
2082.966	10.427	1110388	TRIAL	n/a	n/a	n/a	-999	0	15	[0, 0, 0]	n/a	0	1	0	n/a	n/a	0.0	0	0	0	FR2	0	R1112M
2093.393	0.008	1115601	COUNTDOWN_END	n/a	n/a	n/a	-999	0	15	[0, 0, 0]	n/a	0	1	0	n/a	n/a	0.0	0	0	0	FR2	0	R1112M
2093.401	1.6	1115605	ORIENT	n/a	n/a	n/a	-999	0	15	[0, 0, 0]	n/a	0	1	0	n/a	n/a	0.0	0	0	0	FR2	0	R1112M
2095.801	1.6	1116805	WORD	n/a	wordpools/wordpool_EN.txt	PHONE	1	0	15	[0, 0, 0]	n/a	0	1	0	n/a	n/a	0.0	0	0	0	FR2	0	R1112M
2098.352	1.6	1118081	WORD	n/a	wordpools/wordpool_EN.txt	TOAST	2	0	15	[0, 0, 0]	n/a	0	1	0	n/a	n/a	0.0	0	0	0	FR2	0	R1112M
2100.532	4.6	1119171	STIM_ON	n/a	n/a	n/a	-999	0	15	[0, 0, 0]	n/a	1	1	4600	RAD1	RAD2	500.0	50	230	300	FR2	0	R1112M
2100.734	1.6	1119272	WORD	n/a	wordpools/wordpool_EN.txt	TANK	3	0	15	[0, 0, 0]	n/a	1	1	4600	RAD1	RAD2	500.0	50	230	300	FR2	0	R1112M
2103.319	1.6	1120564	WORD	n/a	wordpools/wordpool_EN.txt	PEA	4	0	15	[0, 0, 0]	n/a	1	1	4600	RAD1	RAD2	500.0	50	230	300	FR2	0	R1112M
2105.92	1.6	1121864	WORD	n/a	wordpools/wordpool_EN.txt	CHAIR	5	1	15	[0, 0, 0]	n/a	0	1	0	n/a	n/a	0.0	0	0	0	FR2	0	R1112M
2108.453	1.6	1123131	WORD	n/a	wordpools/wordpool_EN.txt	BEAN	6	0	15	[0, 0, 0]	n/a	0	1	0	n/a	n/a	0.0	0	0	0	FR2	0	R1112M
2110.868	4.6	1124338	STIM_ON	n/a	n/a	n/a	-999	0	15	[0, 0, 0]	n/a	1	1	4600	RAD1	RAD2	500.0	50	230	300	FR2	0	R1112M
2111.071	1.6	1124440	WORD	n/a	wordpools/wordpool_EN.txt	POOL	7	0	15	[0, 0, 0]	n/a	1	1	4600	RAD1	RAD2	500.0	50	230	300	FR2	0	R1112M
2113.67	1.6	1125739	WORD	n/a	wordpools/wordpool_EN.txt	YARD	8	0	15	[0, 0, 0]	n/a	1	1	4600	RAD1	RAD2	500.0	50	230	300	FR2	0	R1112M
2116.155	1.6	1126982	WORD	n/a	wordpools/wordpool_EN.txt	MUG	9	0	15	[0, 0, 0]	n/a	0	1	0	n/a	n/a	0.0	0	0	0	FR2	0	R1112M
2118.605	1.6	1128207	WORD	n/a	wordpools/wordpool_EN.txt	MAIL	10	0	15	[0, 0, 0]	n/a	0	1	0	n/a	n/a	0.0	0	0	0	FR2	0	R1112M
2120.828	4.6	1129318	STIM_ON	n/a	n/a	n/a	-999	0	15	[0, 0, 0]	n/a	1	1	4600	RAD1	RAD2	500.0	50	230	300	FR2	0	R1112M
2121.039	1.6	1129423	WORD	n/a	wordpools/wordpool_EN.txt	FAN	11	0	15	[0, 0, 0]	n/a	1	1	4600	RAD1	RAD2	500.0	50	230	300	FR2	0	R1112M
2123.622	1.6	1130715	WORD	n/a	wordpools/wordpool_EN.txt	DIME	12	0	15	[0, 0, 0]	n/a	1	1	4600	RAD1	RAD2	500.0	50	230	300	FR2	0	R1112M
2125.223	0.001	1131515	DISTRACT_START	n/a	n/a	n/a	-999	0	15	[0, 0, 0]	n/a	1	1	4600	RAD1	RAD2	500.0	50	230	300	FR2	0	R1112M
2125.224	0.016	1131516	START	n/a	n/a	n/a	-999	0	15	[-999, -999, -999]	n/a	0	1	0	n/a	n/a	0.0	0	0	0	FR2	0	R1112M
2125.24	20.016	1131524	PROB	20.016	n/a	n/a	-999	0	15	[7, 5, 7]	19	0	1	0	n/a	n/a	0.0	0	0	0	FR2	0	R1112M
2145.256	0.005	1141531	STOP	n/a	n/a	n/a	-999	0	15	[-999, -999, -999]	n/a	0	1	0	n/a	n/a	0.0	0	0	0	FR2	0	R1112M
2145.261	1.084	1141534	DISTRACT_END	n/a	n/a	n/a	-999	0	15	[0, 0, 0]	n/a	0	1	0	n/a	n/a	0.0	0	0	0	FR2	0	R1112M
2146.345	2.579	1142076	REC_START	n/a	n/a	n/a	-999	0	15	[0, 0, 0]	n/a	0	1	0	n/a	n/a	0.0	0	0	0	FR2	0	R1112M
2148.924	27.432	1143365	REC_WORD	2.579	n/a	CHAIR	5	1	15	[0, 0, 0]	n/a	0	1	0	n/a	n/a	0.0	0	0	0	FR2	0	R1112M
2176.356	44.453	1157080	REC_END	n/a	n/a	n/a	-999	0	15	[0, 0, 0]	n/a	0	1	0	n/a	n/a	0.0	0	0	0	FR2	0	R1112M
2220.809	0.0	1179306	TRIAL	n/a	n/a	n/a	-999	0	16	[0, 0, 0]	n/a	0	1	0	n/a	n/a	0.0	0	0	0	FR2	0	R1112M
2220.809	10.0	1179306	COUNTDOWN_START	n/a	n/a	n/a	-999	0	16	[0, 0, 0]	n/a	0	1	0	n/a	n/a	0.0	0	0	0	FR2	0	R1112M
