onset	duration	sample	trial_type	response_time	stim_file	item_name	serialpos	list	test	answer	stimulation	stim_list	stim_duration	anode_label	cathode_label	amplitude	pulse_freq	n_pulses	pulse_width	experiment	session	subject
0.0	12.849	5967	SESS_START	n/a	n/a	n/a	-999	-999	[0, 0, 0]	n/a	0	0	0	n/a	n/a	0.0	0	0	0	FR2	0	R1036M
12.849	10.0	12391	COUNTDOWN_START	n/a	n/a	n/a	-999	-999	[0, 0, 0]	n/a	0	0	0	n/a	n/a	0.0	0	0	0	FR2	0	R1036M
23.277	3.759	17605	COUNTDOWN_END	n/a	n/a	n/a	-999	-999	[0, 0, 0]	n/a	0	0	0	n/a	n/a	0.0	0	0	0	FR2	0	R1036M
27.036	1.6	19484	PRACTICE_WORD	n/a	n/a	RING	1	-1	[0, 0, 0]	n/a	0	0	0	n/a	n/a	0.0	0	0	0	FR2	0	R1036M
29.47	1.6	20701	PRACTICE_WORD	n/a	n/a	RHINO	2	-1	[0, 0, 0]	n/a	0	0	0	n/a	n/a	0.0	0	0	0	FR2	0	R1036M
32.07	1.6	22001	PRACTICE_WORD	n/a	n/a	BEAM	3	-1	[0, 0, 0]	n/a	0	0	0	n/a	n/a	0.0	0	0	0	FR2	0	R1036M
34.471	1.6	23202	PRACTICE_WORD	n/a	n/a	CHEST	4	-1	[0, 0, 0]	n/a	0	0	0	n/a	n/a	0.0	0	0	0	FR2	0	R1036M
36.937	1.6	24435	PRACTICE_WORD	n/a	n/a	IRON	5	-1	[0, 0, 0]	n/a	0	0	0	n/a	n/a	0.0	0	0	0	FR2	0	R1036M
39.388	1.6	25660	PRACTICE_WORD	n/a	n/a	WATCH	6	-1	[0, 0, 0]	n/a	0	0	0	n/a	n/a	0.0	0	0	0	FR2	0	R1036M
41.922	1.6	26927	PRACTICE_WORD	n/a	n/a	WAGON	7	-1	[0, 0, 0]	n/a	0	0	0	n/a	n/a	0.0	0	0	0	FR2	0	R1036M
44.489	1.6	28210	PRACTICE_WORD	n/a	n/a	ATTIC	8	-1	[0, 0, 0]	n/a	0	0	0	n/a	n/a	0.0	0	0	0	FR2	0	R1036M
46.89	1.6	29411	PRACTICE_WORD	n/a	n/a	COTTON	9	-1	[0, 0, 0]	n/a	0	0	0	n/a	n/a	0.0	0	0	0	FR2	0	R1036M
49.44	1.6	30686	PRACTICE_WORD	n/a	n/a	CAMEL	10	-1	[0, 0, 0]	n/a	0	0	0	n/a	n/a	0.0	0	0	0	FR2	0	R1036M
52.057	1.6	31994	PRACTICE_WORD	n/a	n/a	TONGUE	11	-1	[0, 0, 0]	n/a	0	0	0	n/a	n/a	0.0	0	0	0	FR2	0	R1036M
54.474	1.6	33203	PRACTICE_WORD	n/a	n/a	FLOOD	12	-1	[0, 0, 0]	n/a	0	0	0	n/a	n/a	0.0	0	0	0	FR2	0	R1036M
56.091	0.001	34011	PRACTICE_DISTRACT_START	n/a	n/a	n/a	-999	-1	[0, 0, 0]	n/a	0	0	0	n/a	n/a	0.0	0	0	0	FR2	0	R1036M
56.092	0.016	34012	START	n/a	n/a	n/a	-999	-1	[-999, -999, -999]	n/a	0	0	0	n/a	n/a	0.0	0	0	0	FR2	0	R1036M
56.108	10.869	34020	PROB	10.831	n/a	n/a	-999	-1	[3, 8, 8]	8	0	0	0	n/a	n/a	0.0	0	0	0	FR2	0	R1036M
66.977	6.301	39454	PROB	6.274	n/a	n/a	-999	-1	[2, 3, 2]	8	0	0	0	n/a	n/a	0.0	0	0	0	FR2	0	R1036M
73.278	2.734	42604	PROB	2.693	n/a	n/a	-999	-1	[3, 1, 8]	5	0	0	0	n/a	n/a	0.0	0	0	0	FR2	0	R1036M
76.012	2.991	43971	PROB	2.991	n/a	n/a	-999	-1	[1, 1, 6]	1	0	0	0	n/a	n/a	0.0	0	0	0	FR2	0	R1036M
79.003	0.01	45466	STOP	n/a	n/a	n/a	-999	-1	[-999, -999, -999]	n/a	0	0	0	n/a	n/a	0.0	0	0	0	FR2	0	R1036M
79.013	0.568	45471	PRACTICE_DISTRACT_END	n/a	n/a	n/a	-999	-1	[0, 0, 0]	n/a	0	0	0	n/a	n/a	0.0	0	0	0	FR2	0	R1036M
79.581	30.515	45755	PRACTICE_REC_START	n/a	n/a	n/a	-999	-1	[0, 0, 0]	n/a	0	0	0	n/a	n/a	0.0	0	0	0	FR2	0	R1036M
110.096	5.09	61012	PRACTICE_REC_END	n/a	n/a	n/a	-999	-1	[0, 0, 0]	n/a	0	0	0	n/a	n/a	0.0	0	0	0	FR2	0	R1036M
115.186	10.0	63557	COUNTDOWN_START	n/a	n/a	n/a	-999	1	[0, 0, 0]	n/a	0	1	0	n/a	n/a	0.0	0	0	0	FR2	0	R1036M
115.187	10.427	63557	TRIAL	n/a	n/a	n/a	-999	1	[0, 0, 0]	n/a	0	1	0	n/a	n/a	0.0	0	0	0	FR2	0	R1036M
125.614	0.008	68771	COUNTDOWN_END	n/a	n/a	n/a	-999	1	[0, 0, 0]	n/a	0	1	0	n/a	n/a	0.0	0	0	0	FR2	0	R1036M
125.622	1.6	68775	ORIENT	n/a	n/a	n/a	-999	1	[0, 0, 0]	n/a	0	1	0	n/a	n/a	0.0	0	0	0	FR2	0	R1036M
127.893	4.6	69910	STIM_ON	n/a	n/a	n/a	-999	1	[0, 0, 0]	n/a	1	1	4600	LATD2	LATD3	1000.0	50	230	300	FR2	0	R1036M
128.106	1.6	70016	WORD	n/a	wordpools/wordpool_EN.txt	SLEEVE	1	1	[0, 0, 0]	n/a	1	1	4600	LATD2	LATD3	1000.0	50	230	300	FR2	0	R1036M
130.639	1.6	71283	WORD	n/a	wordpools/wordpool_EN.txt	SQUARE	2	1	[0, 0, 0]	n/a	1	1	4600	LATD2	LATD3	1000.0	50	230	300	FR2	0	R1036M
133.073	1.6	72500	WORD	n/a	wordpools/wordpool_EN.txt	SHELL	3	1	[0, 0, 0]	n/a	0	1	0	n/a	n/a	0.0	0	0	0	FR2	0	R1036M
135.557	1.6	73742	WORD	n/a	wordpools/wordpool_EN.txt	RIB	4	1	[0, 0, 0]	n/a	0	1	0	n/a	n/a	0.0	0	0	0	FR2	0	R1036M
137.788	4.6	74857	STIM_ON	n/a	n/a	n/a	-999	1	[0, 0, 0]	n/a	1	1	4600	LATD2	LATD3	1000.0	50	230	300	FR2	0	R1036M
137.991	1.6	74959	WORD	n/a	wordpools/wordpool_EN.txt	SUIT	5	1	[0, 0, 0]	n/a	1	1	4600	LATD2	LATD3	1000.0	50	230	300	FR2	0	R1036M
140.408	1.6	76167	WORD	n/a	wordpools/wordpool_EN.txt	ROOT	6	1	[0, 0, 0]	n/a	1	1	4600	LATD2	LATD3	1000.0	50	230	300	FR2	0	R1036M
142.808	1.6	77367	WORD	n/a	wordpools/wordpool_EN.txt	BOARD	7	1	[0, 0, 0]	n/a	0	1	0	n/a	n/a	0.0	0	0	0	FR2	0	R1036M
145.309	1.6	78617	WORD	n/a	wordpools/wordpool_EN.txt	ICE	8	1	[0, 0, 0]	n/a	0	1	0	n/a	n/a	0.0	0	0	0	FR2	0	R1036M
147.665	4.6	79795	STIM_ON	n/a	n/a	n/a	-999	1	[0, 0, 0]	n/a	1	1	4600	LATD2	LATD3	1000.0	50	230	300	FR2	0	R1036M
147.876	1.6	79901	WORD	n/a	wordpools/wordpool_EN.txt	HOOK	9	1	[0, 0, 0]	n/a	1	1	4600	LATD2	LATD3	1000.0	50	230	300	FR2	0	R1036M
150.443	1.6	81184	WORD	n/a	wordpools/wordpool_EN.txt	FOOT	10	1	[0, 0, 0]	n/a	1	1	4600	LATD2	LATD3	1000.0	50	230	300	FR2	0	R1036M
152.994	1.6	82460	WORD	n/a	wordpools/wordpool_EN.txt	SEA	11	1	[0, 0, 0]	n/a	0	1	0	n/a	n/a	0.0	0	0	0	FR2	0	R1036M
155.628	1.6	83777	WORD	n/a	wordpools/wordpool_EN.txt	GUARD	12	1	[0, 0, 0]	n/a	0	1	0	n/a	n/a	0.0	0	0	0	FR2	0	R1036M
157.245	0.0	84585	DISTRACT_START	n/a	n/a	n/a	-999	1	[0, 0, 0]	n/a	0	1	0	n/a	n/a	0.0	0	0	0	FR2	0	R1036M
157.245	0.016	84585	START	n/a	n/a	n/a	-999	1	[-999, -999, -999]	n/a	0	1	0	n/a	n/a	0.0	0	0	0	FR2	0	R1036M
157.261	10.119	84593	PROB	10.087	n/a	n/a	-999	1	[4, 3, 8]	15	0	1	0	n/a	n/a	0.0	0	0	0	FR2	0	R1036M
167.38	4.034	89652	PROB	4.0	n/a	n/a	-999	1	[1, 9, 9]	19	0	1	0	n/a	n/a	0.0	0	0	0	FR2	0	R1036M
171.414	6.342	91669	PROB	6.342	n/a	n/a	-999	1	[6, 7, 2]	15	0	1	0	n/a	n/a	0.0	0	0	0	FR2	0	R1036M
177.756	0.009	94840	STOP	n/a	n/a	n/a	-999	1	[-999, -999, -999]	n/a	0	1	0	n/a	n/a	0.0	0	0	0	FR2	0	R1036M
177.765	1.118	94845	DISTRACT_END	n/a	n/a	n/a	-999	1	[0, 0, 0]	n/a	0	1	0	n/a	n/a	0.0	0	0	0	FR2	0	R1036M
178.883	0.847	95404	REC_START	n/a	n/a	n/a	-999	1	[0, 0, 0]	n/a	0	1	0	n/a	n/a	0.0	0	0	0	FR2	0	R1036M
179.73	2.408	95827	REC_WORD	0.847	n/a	SLEEVE	-999	1	[0, 0, 0]	n/a	0	1	0	n/a	n/a	0.0	0	0	0	FR2	0	R1036M
182.138	2.546	97031	REC_WORD	3.255	n/a	SQUARE	-999	1	[0, 0, 0]	n/a	0	1	0	n/a	n/a	0.0	0	0	0	FR2	0	R1036M
184.684	3.826	98304	REC_WORD	5.801	n/a	SHELF	-999	1	[0, 0, 0]	n/a	0	1	0	n/a	n/a	0.0	0	0	0	FR2	0	R1036M
188.51	3.43	100217	REC_WORD	9.627	n/a	DOOR	-999	1	[0, 0, 0]	n/a	0	1	0	n/a	n/a	0.0	0	0	0	FR2	0	R1036M
191.94	16.951	101932	REC_WORD	13.057	n/a	SALE	-999	1	[0, 0, 0]	n/a	0	1	0	n/a	n/a	0.0	0	0	0	FR2	0	R1036M
208.891	10.449	110407	REC_END	n/a	n/a	n/a	-999	1	[0, 0, 0]	n/a	0	1	0	n/a	n/a	0.0	0	0	0	FR2	0	R1036M
219.34	0.0	115631	TRIAL	n/a	n/a	n/a	-999	2	[0, 0, 0]	n/a	0	0	0	n/a	n/a	0.0	0	0	0	FR2	0	R1036M
219.34	10.0	115631	COUNTDOWN_START	n/a	n/a	n/a	-999	2	[0, 0, 0]	n/a	0	0	0	n/a	n/a	0.0	0	0	0	FR2	0	R1036M
229.768	0.007	120845	COUNTDOWN_END	n/a	n/a	n/a	-999	2	[0, 0, 0]	n/a	0	0	0	n/a	n/a	0.0	0	0	0	FR2	0	R1036M
229.775	1.6	120848	ORIENT	n/a	n/a	n/a	-999	2	[0, 0, 0]	n/a	0	0	0	n/a	n/a	0.0	0	0	0	FR2	0	R1036M
232.159	1.6	122040	WORD	n/a	wordpools/wordpool_EN.txt	DOG	1	2	[0, 0, 0]	n/a	0	0	0	n/a	n/a	0.0	0	0	0	FR2	0	R1036M
234.793	1.6	123357	WORD	n/a	wordpools/wordpool_EN.txt	WOOD	2	2	[0, 0, 0]	n/a	0	0	0	n/a	n/a	0.0	0	0	0	FR2	0	R1036M
237.377	1.6	124649	WORD	n/a	wordpools/wordpool_EN.txt	EEL	3	2	[0, 0, 0]	n/a	0	0	0	n/a	n/a	0.0	0	0	0	FR2	0	R1036M
239.843	1.6	125882	WORD	n/a	wordpools/wordpool_EN.txt	FOAM	4	2	[0, 0, 0]	n/a	0	0	0	n/a	n/a	0.0	0	0	0	FR2	0	R1036M
242.345	1.6	127133	WORD	n/a	wordpools/wordpool_EN.txt	MAIL	5	2	[0, 0, 0]	n/a	0	0	0	n/a	n/a	0.0	0	0	0	FR2	0	R1036M
244.861	1.6	128391	WORD	n/a	wordpools/wordpool_EN.txt	WOLF	6	2	[0, 0, 0]	n/a	0	0	0	n/a	n/a	0.0	0	0	0	FR2	0	R1036M
247.312	1.6	129616	WORD	n/a	wordpools/wordpool_EN.txt	LAND	7	2	[0, 0, 0]	n/a	0	0	0	n/a	n/a	0.0	0	0	0	FR2	0	R1036M
249.845	1.6	130883	WORD	n/a	wordpools/wordpool_EN.txt	WHEEL	8	2	[0, 0, 0]	n/a	0	0	0	n/a	n/a	0.0	0	0	0	FR2	0	R1036M
252.263	1.6	132091	WORD	n/a	wordpools/wordpool_EN.txt	CHALK	9	2	[0, 0, 0]	n/a	0	0	0	n/a	n/a	0.0	0	0	0	FR2	0	R1036M
254.68	1.6	133300	WORD	n/a	wordpools/wordpool_EN.txt	TAIL	10	2	[0, 0, 0]	n/a	0	0	0	n/a	n/a	0.0	0	0	0	FR2	0	R1036M
257.231	1.6	134575	WORD	n/a	wordpools/wordpool_EN.txt	SIGN	11	2	[0, 0, 0]	n/a	0	0	0	n/a	n/a	0.0	0	0	0	FR2	0	R1036M
259.665	1.6	135792	WORD	n/a	wordpools/wordpool_EN.txt	TANK	12	2	[0, 0, 0]	n/a	0	0	0	n/a	n/a	0.0	0	0	0	FR2	0	R1036M
261.282	0.0	136601	DISTRACT_START	n/a	n/a	n/a	-999	2	[0, 0, 0]	n/a	0	0	0	n/a	n/a	0.0	0	0	0	FR2	0	R1036M
261.282	0.016	136601	START	n/a	n/a	n/a	-999	2	[-999, -999, -999]	n/a	0	0	0	n/a	n/a	0.0	0	0	0	FR2	0	R1036M
261.298	7.534	136609	PROB	7.514	n/a	n/a	-999	2	[2, 3, 6]	11	0	0	0	n/a	n/a	0.0	0	0	0	FR2	0	R1036M
268.832	6.869	140376	PROB	6.843	n/a	n/a	-999	2	[5, 4, 2]	11	0	0	0	n/a	n/a	0.0	0	0	0	FR2	0	R1036M
275.701	6.399	143810	PROB	6.399	n/a	n/a	-999	2	[4, 6, 2]	12	0	0	0	n/a	n/a	0.0	0	0	0	FR2	0	R1036M
282.1	0.019	147009	STOP	n/a	n/a	n/a	-999	2	[-999, -999, -999]	n/a	0	0	0	n/a	n/a	0.0	0	0	0	FR2	0	R1036M
282.119	1.117	147019	DISTRACT_END	n/a	n/a	n/a	-999	2	[0, 0, 0]	n/a	0	0	0	n/a	n/a	0.0	0	0	0	FR2	0	R1036M
283.236	0.852	147577	REC_START	n/a	n/a	n/a	-999	2	[0, 0, 0]	n/a	0	0	0	n/a	n/a	0.0	0	0	0	FR2	0	R1036M
284.088	1.728	148003	REC_WORD	0.852	n/a	DOG	-999	2	[0, 0, 0]	n/a	0	0	0	n/a	n/a	0.0	0	0	0	FR2	0	R1036M
285.816	2.2	148867	REC_WORD	2.58	n/a	WOOD	-999	2	[0, 0, 0]	n/a	0	0	0	n/a	n/a	0.0	0	0	0	FR2	0	R1036M
288.016	2.087	149967	REC_WORD	4.78	n/a	SLEEVE	-999	2	[0, 0, 0]	n/a	0	0	0	n/a	n/a	0.0	0	0	0	FR2	0	R1036M
290.103	9.186	151010	REC_WORD	6.867	n/a	SHELL	-999	2	[0, 0, 0]	n/a	0	0	0	n/a	n/a	0.0	0	0	0	FR2	0	R1036M
299.289	4.117	155603	REC_WORD	16.053	n/a	COTTON	-999	2	[0, 0, 0]	n/a	0	0	0	n/a	n/a	0.0	0	0	0	FR2	0	R1036M
303.406	9.842	157662	REC_WORD	20.17	n/a	KITE	-999	2	[0, 0, 0]	n/a	0	0	0	n/a	n/a	0.0	0	0	0	FR2	0	R1036M
313.248	75.008	162582	REC_END	n/a	n/a	n/a	-999	2	[0, 0, 0]	n/a	0	0	0	n/a	n/a	0.0	0	0	0	FR2	0	R1036M
388.256	10.0	200084	COUNTDOWN_START	n/a	n/a	n/a	-999	3	[0, 0, 0]	n/a	0	1	0	n/a	n/a	0.0	0	0	0	FR2	0	R1036M
388.257	10.427	200085	TRIAL	n/a	n/a	n/a	-999	3	[0, 0, 0]	n/a	0	1	0	n/a	n/a	0.0	0	0	0	FR2	0	R1036M
398.684	0.008	205298	COUNTDOWN_END	n/a	n/a	n/a	-999	3	[0, 0, 0]	n/a	0	1	0	n/a	n/a	0.0	0	0	0	FR2	0	R1036M
398.692	1.6	205302	ORIENT	n/a	n/a	n/a	-999	3	[0, 0, 0]	n/a	0	1	0	n/a	n/a	0.0	0	0	0	FR2	0	R1036M
400.906	4.6	206409	STIM_ON	n/a	n/a	n/a	-999	3	[0, 0, 0]	n/a	1	1	4600	LATD2	LATD3	1000.0	50	230	300	FR2	0	R1036M
401.108	1.6	206510	WORD	n/a	wordpools/wordpool_EN.txt	BAND	1	3	[0, 0, 0]	n/a	1	1	4600	LATD2	LATD3	1000.0	50	230	300	FR2	0	R1036M
403.493	1.6	207702	WORD	n/a	wordpools/wordpool_EN.txt	TOOTH	2	3	[0, 0, 0]	n/a	1	1	4600	LATD2	LATD3	1000.0	50	230	300	FR2	0	R1036M
405.993	1.6	208952	WORD	n/a	wordpools/wordpool_EN.txt	ZOO	3	3	[0, 0, 0]	n/a	0	1	0	n/a	n/a	0.0	0	0	0	FR2	0	R1036M
408.493	1.6	210202	WORD	n/a	wordpools/wordpool_EN.txt	CHIEF	4	3	[0, 0, 0]	n/a	0	1	0	n/a	n/a	0.0	0	0	0	FR2	0	R1036M
410.792	4.6	211352	STIM_ON	n/a	n/a	n/a	-999	3	[0, 0, 0]	n/a	1	1	4600	LATD2	LATD3	1000.0	50	230	300	FR2	0	R1036M
410.994	1.6	211453	WORD	n/a	wordpools/wordpool_EN.txt	FENCE	5	3	[0, 0, 0]	n/a	1	1	4600	LATD2	LATD3	1000.0	50	230	300	FR2	0	R1036M
413.445	1.6	212678	WORD	n/a	wordpools/wordpool_EN.txt	BALL	6	3	[0, 0, 0]	n/a	1	1	4600	LATD2	LATD3	1000.0	50	230	300	FR2	0	R1036M
415.912	1.6	213911	WORD	n/a	wordpools/wordpool_EN.txt	FUR	7	3	[0, 0, 0]	n/a	0	1	0	n/a	n/a	0.0	0	0	0	FR2	0	R1036M
418.329	1.6	215120	WORD	n/a	wordpools/wordpool_EN.txt	ARK	8	3	[0, 0, 0]	n/a	0	1	0	n/a	n/a	0.0	0	0	0	FR2	0	R1036M
420.573	4.6	216242	STIM_ON	n/a	n/a	n/a	-999	3	[0, 0, 0]	n/a	1	1	4600	LATD2	LATD3	1000.0	50	230	300	FR2	0	R1036M
420.779	1.6	216345	WORD	n/a	wordpools/wordpool_EN.txt	INK	9	3	[0, 0, 0]	n/a	1	1	4600	LATD2	LATD3	1000.0	50	230	300	FR2	0	R1036M
423.346	1.6	217628	WORD	n/a	wordpools/wordpool_EN.txt	MOTH	10	3	[0, 0, 0]	n/a	1	1	4600	LATD2	LATD3	1000.0	50	230	300	FR2	0	R1036M
425.864	1.6	218887	WORD	n/a	wordpools/wordpool_EN.txt	BADGE	11	3	[0, 0, 0]	n/a	0	1	0	n/a	n/a	0.0	0	0	0	FR2	0	R1036M
428.264	1.6	220087	WORD	n/a	wordpools/wordpool_EN.txt	SWORD	12	3	[0, 0, 0]	n/a	0	1	0	n/a	n/a	0.0	0	0	0	FR2	0	R1036M
429.881	0.001	220895	DISTRACT_START	n/a	n/a	n/a	-999	3	[0, 0, 0]	n/a	0	1	0	n/a	n/a	0.0	0	0	0	FR2	0	R1036M
429.882	0.016	220896	START	n/a	n/a	n/a	-999	3	[-999, -999, -999]	n/a	0	1	0	n/a	n/a	0.0	0	0	0	FR2	0	R1036M
429.898	5.884	220904	PROB	5.85	n/a	n/a	-999	3	[1, 7, 8]	16	0	1	0	n/a	n/a	0.0	0	0	0	FR2	0	R1036M
435.782	24.814	223846	PROB	24.814	n/a	n/a	-999	3	[9, 3, 9]	21	0	1	0	n/a	n/a	0.0	0	0	0	FR2	0	R1036M
460.596	0.008	236252	STOP	n/a	n/a	n/a	-999	3	[-999, -999, -999]	n/a	0	1	0	n/a	n/a	0.0	0	0	0	FR2	0	R1036M
460.604	1.117	236256	DISTRACT_END	n/a	n/a	n/a	-999	3	[0, 0, 0]	n/a	0	1	0	n/a	n/a	0.0	0	0	0	FR2	0	R1036M
461.721	2.005	236815	REC_START	n/a	n/a	n/a	-999	3	[0, 0, 0]	n/a	0	1	0	n/a	n/a	0.0	0	0	0	FR2	0	R1036M
463.726	6.859	237817	REC_WORD	2.005	n/a	SWORD	-999	3	[0, 0, 0]	n/a	0	1	0	n/a	n/a	0.0	0	0	0	FR2	0	R1036M
470.585	4.543	241246	REC_WORD	8.864	n/a	DOG	-999	3	[0, 0, 0]	n/a	0	1	0	n/a	n/a	0.0	0	0	0	FR2	0	R1036M
475.128	16.605	243518	REC_WORD	13.407	n/a	LAKE	-999	3	[0, 0, 0]	n/a	0	1	0	n/a	n/a	0.0	0	0	0	FR2	0	R1036M
491.733	274.497	251820	REC_END	n/a	n/a	n/a	-999	3	[0, 0, 0]	n/a	0	1	0	n/a	n/a	0.0	0	0	0	FR2	0	R1036M
766.23	0.0	389061	TRIAL	n/a	n/a	n/a	-999	4	[0, 0, 0]	n/a	0	1	0	n/a	n/a	0.0	0	0	0	FR2	0	R1036M
766.23	10.0	389061	COUNTDOWN_START	n/a	n/a	n/a	-999	4	[0, 0, 0]	n/a	0	1	0	n/a	n/a	0.0	0	0	0	FR2	0	R1036M
776.658	0.007	394274	COUNTDOWN_END	n/a	n/a	n/a	-999	4	[0, 0, 0]	n/a	0	1	0	n/a	n/a	0.0	0	0	0	FR2	0	R1036M
776.665	1.6	394278	ORIENT	n/a	n/a	n/a	-999	4	[0, 0, 0]	n/a	0	1	0	n/a	n/a	0.0	0	0	0	FR2	0	R1036M
779.066	1.6	395478	WORD	n/a	wordpools/wordpool_EN.txt	CROWN	1	4	[0, 0, 0]	n/a	0	1	0	n/a	n/a	0.0	0	0	0	FR2	0	R1036M
781.683	1.6	396787	WORD	n/a	wordpools/wordpool_EN.txt	TOAST	2	4	[0, 0, 0]	n/a	0	1	0	n/a	n/a	0.0	0	0	0	FR2	0	R1036M
783.964	4.6	397927	STIM_ON	n/a	n/a	n/a	-999	4	[0, 0, 0]	n/a	1	1	4600	LATD2	LATD3	1000.0	50	230	300	FR2	0	R1036M
784.167	1.6	398029	WORD	n/a	wordpools/wordpool_EN.txt	LIP	3	4	[0, 0, 0]	n/a	1	1	4600	LATD2	LATD3	1000.0	50	230	300	FR2	0	R1036M
786.734	1.6	399312	WORD	n/a	wordpools/wordpool_EN.txt	GOLD	4	4	[0, 0, 0]	n/a	1	1	4600	LATD2	LATD3	1000.0	50	230	300	FR2	0	R1036M
789.334	1.6	400612	WORD	n/a	wordpools/wordpool_EN.txt	BAG	5	4	[0, 0, 0]	n/a	0	1	0	n/a	n/a	0.0	0	0	0	FR2	0	R1036M
791.801	1.6	401845	WORD	n/a	wordpools/wordpool_EN.txt	PLATE	6	4	[0, 0, 0]	n/a	0	1	0	n/a	n/a	0.0	0	0	0	FR2	0	R1036M
794.166	4.6	403028	STIM_ON	n/a	n/a	n/a	-999	4	[0, 0, 0]	n/a	1	1	4600	LATD2	LATD3	1000.0	50	230	300	FR2	0	R1036M
794.368	1.6	403129	WORD	n/a	wordpools/wordpool_EN.txt	CANE	7	4	[0, 0, 0]	n/a	1	1	4600	LATD2	LATD3	1000.0	50	230	300	FR2	0	R1036M
796.802	1.6	404346	WORD	n/a	wordpools/wordpool_EN.txt	FROG	8	4	[0, 0, 0]	n/a	1	1	4600	LATD2	LATD3	1000.0	50	230	300	FR2	0	R1036M
799.269	1.6	405579	WORD	n/a	wordpools/wordpool_EN.txt	BLOOM	9	4	[0, 0, 0]	n/a	0	1	0	n/a	n/a	0.0	0	0	0	FR2	0	R1036M
801.852	1.6	406871	WORD	n/a	wordpools/wordpool_EN.txt	LOCK	10	4	[0, 0, 0]	n/a	0	1	0	n/a	n/a	0.0	0	0	0	FR2	0	R1036M
804.119	4.6	408004	STIM_ON	n/a	n/a	n/a	-999	4	[0, 0, 0]	n/a	1	1	4600	LATD2	LATD3	1000.0	50	230	300	FR2	0	R1036M
804.32	1.6	408104	WORD	n/a	wordpools/wordpool_EN.txt	PIT	11	4	[0, 0, 0]	n/a	1	1	4600	LATD2	LATD3	1000.0	50	230	300	FR2	0	R1036M
806.82	1.6	409354	WORD	n/a	wordpools/wordpool_EN.txt	POLE	12	4	[0, 0, 0]	n/a	1	1	4600	LATD2	LATD3	1000.0	50	230	300	FR2	0	R1036M
808.438	0.0	410163	DISTRACT_START	n/a	n/a	n/a	-999	4	[0, 0, 0]	n/a	1	1	4600	LATD2	LATD3	1000.0	50	230	300	FR2	0	R1036M
808.438	0.017	410163	START	n/a	n/a	n/a	-999	4	[-999, -999, -999]	n/a	0	1	0	n/a	n/a	0.0	0	0	0	FR2	0	R1036M
808.455	12.102	410172	PROB	12.069	n/a	n/a	-999	4	[7, 3, 6]	16	0	1	0	n/a	n/a	0.0	0	0	0	FR2	0	R1036M
820.557	5.234	416223	PROB	5.198	n/a	n/a	-999	4	[7, 3, 1]	11	0	1	0	n/a	n/a	0.0	0	0	0	FR2	0	R1036M
825.791	8.573	418839	PROB	8.573	n/a	n/a	-999	4	[1, 6, 8]	15	0	1	0	n/a	n/a	0.0	0	0	0	FR2	0	R1036M
834.364	0.012	423126	STOP	n/a	n/a	n/a	-999	4	[-999, -999, -999]	n/a	0	1	0	n/a	n/a	0.0	0	0	0	FR2	0	R1036M
834.376	1.134	423132	DISTRACT_END	n/a	n/a	n/a	-999	4	[0, 0, 0]	n/a	0	1	0	n/a	n/a	0.0	0	0	0	FR2	0	R1036M
835.51	1.134	423699	REC_START	n/a	n/a	n/a	-999	4	[0, 0, 0]	n/a	0	1	0	n/a	n/a	0.0	0	0	0	FR2	0	R1036M
836.644	2.249	424266	REC_WORD	1.134	n/a	CROWN	-999	4	[0, 0, 0]	n/a	0	1	0	n/a	n/a	0.0	0	0	0	FR2	0	R1036M
838.893	2.745	425390	REC_WORD	3.383	n/a	FROG	-999	4	[0, 0, 0]	n/a	0	1	0	n/a	n/a	0.0	0	0	0	FR2	0	R1036M
841.638	8.457	426762	REC_WORD	6.128	n/a	LIP	-999	4	[0, 0, 0]	n/a	0	1	0	n/a	n/a	0.0	0	0	0	FR2	0	R1036M
850.095	4.993	430991	REC_WORD	14.585	n/a	TOE	-999	4	[0, 0, 0]	n/a	0	1	0	n/a	n/a	0.0	0	0	0	FR2	0	R1036M
855.088	10.434	433487	REC_WORD	19.578	n/a	CRANE	-999	4	[0, 0, 0]	n/a	0	1	0	n/a	n/a	0.0	0	0	0	FR2	0	R1036M
865.522	12.863	438704	REC_END	n/a	n/a	n/a	-999	4	[0, 0, 0]	n/a	0	1	0	n/a	n/a	0.0	0	0	0	FR2	0	R1036M
878.385	0.0	445135	TRIAL	n/a	n/a	n/a	-999	5	[0, 0, 0]	n/a	0	1	0	n/a	n/a	0.0	0	0	0	FR2	0	R1036M
878.385	10.0	445135	COUNTDOWN_START	n/a	n/a	n/a	-999	5	[0, 0, 0]	n/a	0	1	0	n/a	n/a	0.0	0	0	0	FR2	0	R1036M
888.813	0.006	450349	COUNTDOWN_END	n/a	n/a	n/a	-999	5	[0, 0, 0]	n/a	0	1	0	n/a	n/a	0.0	0	0	0	FR2	0	R1036M
888.819	1.6	450352	ORIENT	n/a	n/a	n/a	-999	5	[0, 0, 0]	n/a	0	1	0	n/a	n/a	0.0	0	0	0	FR2	0	R1036M
891.041	4.6	451463	STIM_ON	n/a	n/a	n/a	-999	5	[0, 0, 0]	n/a	1	1	4600	LATD2	LATD3	1000.0	50	230	300	FR2	0	R1036M
891.254	1.6	451569	WORD	n/a	wordpools/wordpool_EN.txt	OWL	1	5	[0, 0, 0]	n/a	1	1	4600	LATD2	LATD3	1000.0	50	230	300	FR2	0	R1036M
893.804	1.6	452844	WORD	n/a	wordpools/wordpool_EN.txt	SINK	2	5	[0, 0, 0]	n/a	1	1	4600	LATD2	LATD3	1000.0	50	230	300	FR2	0	R1036M
896.372	1.6	454128	WORD	n/a	wordpools/wordpool_EN.txt	BENCH	3	5	[0, 0, 0]	n/a	0	1	0	n/a	n/a	0.0	0	0	0	FR2	0	R1036M
898.922	1.6	455403	WORD	n/a	wordpools/wordpool_EN.txt	NEST	4	5	[0, 0, 0]	n/a	0	1	0	n/a	n/a	0.0	0	0	0	FR2	0	R1036M
901.185	4.6	456534	STIM_ON	n/a	n/a	n/a	-999	5	[0, 0, 0]	n/a	1	1	4600	LATD2	LATD3	1000.0	50	230	300	FR2	0	R1036M
901.389	1.6	456636	WORD	n/a	wordpools/wordpool_EN.txt	TEA	5	5	[0, 0, 0]	n/a	1	1	4600	LATD2	LATD3	1000.0	50	230	300	FR2	0	R1036M
903.94	1.6	457912	WORD	n/a	wordpools/wordpool_EN.txt	BOAT	6	5	[0, 0, 0]	n/a	1	1	4600	LATD2	LATD3	1000.0	50	230	300	FR2	0	R1036M
906.407	1.6	459145	WORD	n/a	wordpools/wordpool_EN.txt	ANT	7	5	[0, 0, 0]	n/a	0	1	0	n/a	n/a	0.0	0	0	0	FR2	0	R1036M
908.791	1.6	460337	WORD	n/a	wordpools/wordpool_EN.txt	ELF	8	5	[0, 0, 0]	n/a	0	1	0	n/a	n/a	0.0	0	0	0	FR2	0	R1036M
911.085	4.6	461484	STIM_ON	n/a	n/a	n/a	-999	5	[0, 0, 0]	n/a	1	1	4600	LATD2	LATD3	1000.0	50	230	300	FR2	0	R1036M
911.291	1.6	461587	WORD	n/a	wordpools/wordpool_EN.txt	WAVE	9	5	[0, 0, 0]	n/a	1	1	4600	LATD2	LATD3	1000.0	50	230	300	FR2	0	R1036M
913.808	1.6	462845	WORD	n/a	wordpools/wordpool_EN.txt	NOSE	10	5	[0, 0, 0]	n/a	1	1	4600	LATD2	LATD3	1000.0	50	230	300	FR2	0	R1036M
916.275	1.6	464079	WORD	n/a	wordpools/wordpool_EN.txt	TRASH	11	5	[0, 0, 0]	n/a	0	1	0	n/a	n/a	0.0	0	0	0	FR2	0	R1036M
918.709	1.6	465296	WORD	n/a	wordpools/wordpool_EN.txt	FOG	12	5	[0, 0, 0]	n/a	0	1	0	n/a	n/a	0.0	0	0	0	FR2	0	R1036M
920.326	0.001	466104	DISTRACT_START	n/a	n/a	n/a	-999	5	[0, 0, 0]	n/a	0	1	0	n/a	n/a	0.0	0	0	0	FR2	0	R1036M
920.327	0.016	466105	START	n/a	n/a	n/a	-999	5	[-999, -999, -999]	n/a	0	1	0	n/a	n/a	0.0	0	0	0	FR2	0	R1036M
920.343	3.667	466113	PROB	3.637	n/a	n/a	-999	5	[7, 5, 7]	33	0	1	0	n/a	n/a	0.0	0	0	0	FR2	0	R1036M
924.01	3.318	467946	PROB	3.29	n/a	n/a	-999	5	[4, 1, 4]	9	0	1	0	n/a	n/a	0.0	0	0	0	FR2	0	R1036M
927.328	4.533	469605	PROB	4.507	n/a	n/a	-999	5	[7, 9, 9]	21	0	1	0	n/a	n/a	0.0	0	0	0	FR2	0	R1036M
931.861	3.602	471871	PROB	3.575	n/a	n/a	-999	5	[6, 6, 1]	13	0	1	0	n/a	n/a	0.0	0	0	0	FR2	0	R1036M
935.463	6.117	473672	PROB	6.117	n/a	n/a	-999	5	[1, 4, 8]	13	0	1	0	n/a	n/a	0.0	0	0	0	FR2	0	R1036M
941.58	0.017	476731	STOP	n/a	n/a	n/a	-999	5	[-999, -999, -999]	n/a	0	1	0	n/a	n/a	0.0	0	0	0	FR2	0	R1036M
941.597	1.051	476739	DISTRACT_END	n/a	n/a	n/a	-999	5	[0, 0, 0]	n/a	0	1	0	n/a	n/a	0.0	0	0	0	FR2	0	R1036M
942.648	0.935	477265	REC_START	n/a	n/a	n/a	-999	5	[0, 0, 0]	n/a	0	1	0	n/a	n/a	0.0	0	0	0	FR2	0	R1036M
943.583	1.897	477732	REC_WORD	0.935	n/a	OWL	-999	5	[0, 0, 0]	n/a	0	1	0	n/a	n/a	0.0	0	0	0	FR2	0	R1036M
945.48	2.85	478680	REC_WORD	2.832	n/a	NEST	-999	5	[0, 0, 0]	n/a	0	1	0	n/a	n/a	0.0	0	0	0	FR2	0	R1036M
948.33	16.46	480105	REC_WORD	5.682	n/a	FROG	-999	5	[0, 0, 0]	n/a	0	1	0	n/a	n/a	0.0	0	0	0	FR2	0	R1036M
964.79	4.513	488335	REC_WORD	22.142	n/a	TOAD	-999	5	[0, 0, 0]	n/a	0	1	0	n/a	n/a	0.0	0	0	0	FR2	0	R1036M
969.303	3.354	490591	REC_WORD	26.655	n/a	GOOSE	-999	5	[0, 0, 0]	n/a	0	1	0	n/a	n/a	0.0	0	0	0	FR2	0	R1036M
972.657	245.327	492268	REC_END	n/a	n/a	n/a	-999	5	[0, 0, 0]	n/a	0	1	0	n/a	n/a	0.0	0	0	0	FR2	0	R1036M
1217.984	0.0	614925	TRIAL	n/a	n/a	n/a	-999	6	[0, 0, 0]	n/a	0	1	0	n/a	n/a	0.0	0	0	0	FR2	0	R1036M
1217.984	10.0	614925	COUNTDOWN_START	n/a	n/a	n/a	-999	6	[0, 0, 0]	n/a	0	1	0	n/a	n/a	0.0	0	0	0	FR2	0	R1036M
1228.412	0.007	620139	COUNTDOWN_END	n/a	n/a	n/a	-999	6	[0, 0, 0]	n/a	0	1	0	n/a	n/a	0.0	0	0	0	FR2	0	R1036M
1228.419	1.6	620142	ORIENT	n/a	n/a	n/a	-999	6	[0, 0, 0]	n/a	0	1	0	n/a	n/a	0.0	0	0	0	FR2	0	R1036M
1230.76	4.6	621312	STIM_ON	n/a	n/a	n/a	-999	6	[0, 0, 0]	n/a	1	1	4600	LATD2	LATD3	1000.0	50	230	300	FR2	0	R1036M
1230.97	1.6	621417	WORD	n/a	wordpools/wordpool_EN.txt	RICE	1	6	[0, 0, 0]	n/a	1	1	4600	LATD2	LATD3	1000.0	50	230	300	FR2	0	R1036M
1233.354	1.6	622609	WORD	n/a	wordpools/wordpool_EN.txt	RAKE	2	6	[0, 0, 0]	n/a	1	1	4600	LATD2	LATD3	1000.0	50	230	300	FR2	0	R1036M
1235.754	1.6	623809	WORD	n/a	wordpools/wordpool_EN.txt	HOLE	3	6	[0, 0, 0]	n/a	0	1	0	n/a	n/a	0.0	0	0	0	FR2	0	R1036M
1238.355	1.6	625110	WORD	n/a	wordpools/wordpool_EN.txt	RUG	4	6	[0, 0, 0]	n/a	0	1	0	n/a	n/a	0.0	0	0	0	FR2	0	R1036M
1240.566	4.6	626215	STIM_ON	n/a	n/a	n/a	-999	6	[0, 0, 0]	n/a	1	1	4600	LATD2	LATD3	1000.0	50	230	300	FR2	0	R1036M
1240.772	1.6	626318	WORD	n/a	wordpools/wordpool_EN.txt	MOUTH	5	6	[0, 0, 0]	n/a	1	1	4600	LATD2	LATD3	1000.0	50	230	300	FR2	0	R1036M
1243.256	1.6	627560	WORD	n/a	wordpools/wordpool_EN.txt	SUN	6	6	[0, 0, 0]	n/a	1	1	4600	LATD2	LATD3	1000.0	50	230	300	FR2	0	R1036M
1245.673	1.6	628769	WORD	n/a	wordpools/wordpool_EN.txt	GLASS	7	6	[0, 0, 0]	n/a	0	1	0	n/a	n/a	0.0	0	0	0	FR2	0	R1036M
1248.207	1.6	630035	WORD	n/a	wordpools/wordpool_EN.txt	SOAP	8	6	[0, 0, 0]	n/a	0	1	0	n/a	n/a	0.0	0	0	0	FR2	0	R1036M
1250.524	4.6	631194	STIM_ON	n/a	n/a	n/a	-999	6	[0, 0, 0]	n/a	1	1	4600	LATD2	LATD3	1000.0	50	230	300	FR2	0	R1036M
1250.74	1.6	631302	WORD	n/a	wordpools/wordpool_EN.txt	EGG	9	6	[0, 0, 0]	n/a	1	1	4600	LATD2	LATD3	1000.0	50	230	300	FR2	0	R1036M
1253.374	1.6	632619	WORD	n/a	wordpools/wordpool_EN.txt	BRANCH	10	6	[0, 0, 0]	n/a	1	1	4600	LATD2	LATD3	1000.0	50	230	300	FR2	0	R1036M
1255.958	1.6	633911	WORD	n/a	wordpools/wordpool_EN.txt	MOOSE	11	6	[0, 0, 0]	n/a	0	1	0	n/a	n/a	0.0	0	0	0	FR2	0	R1036M
1258.425	1.6	635144	WORD	n/a	wordpools/wordpool_EN.txt	WORM	12	6	[0, 0, 0]	n/a	0	1	0	n/a	n/a	0.0	0	0	0	FR2	0	R1036M
1260.042	0.001	635953	DISTRACT_START	n/a	n/a	n/a	-999	6	[0, 0, 0]	n/a	0	1	0	n/a	n/a	0.0	0	0	0	FR2	0	R1036M
1260.043	0.016	635953	START	n/a	n/a	n/a	-999	6	[-999, -999, -999]	n/a	0	1	0	n/a	n/a	0.0	0	0	0	FR2	0	R1036M
1260.059	10.218	635961	PROB	10.185	n/a	n/a	-999	6	[9, 3, 5]	17	0	1	0	n/a	n/a	0.0	0	0	0	FR2	0	R1036M
1270.277	4.768	641070	PROB	4.735	n/a	n/a	-999	6	[7, 9, 5]	16	0	1	0	n/a	n/a	0.0	0	0	0	FR2	0	R1036M
1275.045	6.287	643454	PROB	6.287	n/a	n/a	-999	6	[7, 6, 7]	20	0	1	0	n/a	n/a	0.0	0	0	0	FR2	0	R1036M
1281.332	0.014	646597	STOP	n/a	n/a	n/a	-999	6	[-999, -999, -999]	n/a	0	1	0	n/a	n/a	0.0	0	0	0	FR2	0	R1036M
1281.346	1.134	646604	DISTRACT_END	n/a	n/a	n/a	-999	6	[0, 0, 0]	n/a	0	1	0	n/a	n/a	0.0	0	0	0	FR2	0	R1036M
1282.48	0.98	647171	REC_START	n/a	n/a	n/a	-999	6	[0, 0, 0]	n/a	0	1	0	n/a	n/a	0.0	0	0	0	FR2	0	R1036M
1283.46	2.345	647661	REC_WORD	0.98	n/a	EGG	-999	6	[0, 0, 0]	n/a	0	1	0	n/a	n/a	0.0	0	0	0	FR2	0	R1036M
1285.805	1.912	648833	REC_WORD	3.325	n/a	BRANCH	-999	6	[0, 0, 0]	n/a	0	1	0	n/a	n/a	0.0	0	0	0	FR2	0	R1036M
1287.717	2.615	649789	REC_WORD	5.237	n/a	SUN	-999	6	[0, 0, 0]	n/a	0	1	0	n/a	n/a	0.0	0	0	0	FR2	0	R1036M
1290.332	17.503	651097	REC_WORD	7.852	n/a	MOOSE	-999	6	[0, 0, 0]	n/a	0	1	0	n/a	n/a	0.0	0	0	0	FR2	0	R1036M
1307.835	4.657	659848	REC_WORD	25.355	n/a	STREAM	-999	6	[0, 0, 0]	n/a	0	1	0	n/a	n/a	0.0	0	0	0	FR2	0	R1036M
1312.492	28.299	662176	REC_END	n/a	n/a	n/a	-999	6	[0, 0, 0]	n/a	0	1	0	n/a	n/a	0.0	0	0	0	FR2	0	R1036M
1340.791	0.0	676325	TRIAL	n/a	n/a	n/a	-999	7	[0, 0, 0]	n/a	0	0	0	n/a	n/a	0.0	0	0	0	FR2	0	R1036M
1340.791	10.0	676325	COUNTDOWN_START	n/a	n/a	n/a	-999	7	[0, 0, 0]	n/a	0	0	0	n/a	n/a	0.0	0	0	0	FR2	0	R1036M
1351.219	0.008	681539	COUNTDOWN_END	n/a	n/a	n/a	-999	7	[0, 0, 0]	n/a	0	0	0	n/a	n/a	0.0	0	0	0	FR2	0	R1036M
1351.227	1.6	681543	ORIENT	n/a	n/a	n/a	-999	7	[0, 0, 0]	n/a	0	0	0	n/a	n/a	0.0	0	0	0	FR2	0	R1036M
1353.777	1.6	682818	WORD	n/a	wordpools/wordpool_EN.txt	STEAK	1	7	[0, 0, 0]	n/a	0	0	0	n/a	n/a	0.0	0	0	0	FR2	0	R1036M
1356.161	1.6	684009	WORD	n/a	wordpools/wordpool_EN.txt	STEAM	2	7	[0, 0, 0]	n/a	0	0	0	n/a	n/a	0.0	0	0	0	FR2	0	R1036M
1358.595	1.6	685226	WORD	n/a	wordpools/wordpool_EN.txt	GOAT	3	7	[0, 0, 0]	n/a	0	0	0	n/a	n/a	0.0	0	0	0	FR2	0	R1036M
1361.029	1.6	686443	WORD	n/a	wordpools/wordpool_EN.txt	ROOM	4	7	[0, 0, 0]	n/a	0	0	0	n/a	n/a	0.0	0	0	0	FR2	0	R1036M
1363.596	1.6	687727	WORD	n/a	wordpools/wordpool_EN.txt	NAIL	5	7	[0, 0, 0]	n/a	0	0	0	n/a	n/a	0.0	0	0	0	FR2	0	R1036M
1366.063	1.6	688960	WORD	n/a	wordpools/wordpool_EN.txt	SNAKE	6	7	[0, 0, 0]	n/a	0	0	0	n/a	n/a	0.0	0	0	0	FR2	0	R1036M
1368.647	1.6	690252	WORD	n/a	wordpools/wordpool_EN.txt	FARM	7	7	[0, 0, 0]	n/a	0	0	0	n/a	n/a	0.0	0	0	0	FR2	0	R1036M
1371.03	1.6	691444	WORD	n/a	wordpools/wordpool_EN.txt	HOOF	8	7	[0, 0, 0]	n/a	0	0	0	n/a	n/a	0.0	0	0	0	FR2	0	R1036M
1373.598	1.6	692727	WORD	n/a	wordpools/wordpool_EN.txt	FRUIT	9	7	[0, 0, 0]	n/a	0	0	0	n/a	n/a	0.0	0	0	0	FR2	0	R1036M
1376.048	1.6	693952	WORD	n/a	wordpools/wordpool_EN.txt	CROW	10	7	[0, 0, 0]	n/a	0	0	0	n/a	n/a	0.0	0	0	0	FR2	0	R1036M
1378.615	1.6	695236	WORD	n/a	wordpools/wordpool_EN.txt	POND	11	7	[0, 0, 0]	n/a	0	0	0	n/a	n/a	0.0	0	0	0	FR2	0	R1036M
1381.132	1.6	696494	WORD	n/a	wordpools/wordpool_EN.txt	HORN	12	7	[0, 0, 0]	n/a	0	0	0	n/a	n/a	0.0	0	0	0	FR2	0	R1036M
1382.749	0.001	697303	DISTRACT_START	n/a	n/a	n/a	-999	7	[0, 0, 0]	n/a	0	0	0	n/a	n/a	0.0	0	0	0	FR2	0	R1036M
1382.75	0.016	697303	START	n/a	n/a	n/a	-999	7	[-999, -999, -999]	n/a	0	0	0	n/a	n/a	0.0	0	0	0	FR2	0	R1036M
1382.766	9.552	697311	PROB	9.526	n/a	n/a	-999	7	[2, 9, 5]	15	0	0	0	n/a	n/a	0.0	0	0	0	FR2	0	R1036M
1392.318	7.901	702087	PROB	7.877	n/a	n/a	-999	7	[3, 6, 7]	18	0	0	0	n/a	n/a	0.0	0	0	0	FR2	0	R1036M
1400.219	5.153	706037	PROB	5.153	n/a	n/a	-999	7	[1, 8, 2]	11	0	0	0	n/a	n/a	0.0	0	0	0	FR2	0	R1036M
1405.372	0.015	708614	STOP	n/a	n/a	n/a	-999	7	[-999, -999, -999]	n/a	0	0	0	n/a	n/a	0.0	0	0	0	FR2	0	R1036M
1405.387	1.151	708621	DISTRACT_END	n/a	n/a	n/a	-999	7	[0, 0, 0]	n/a	0	0	0	n/a	n/a	0.0	0	0	0	FR2	0	R1036M
1406.538	2.517	709197	REC_START	n/a	n/a	n/a	-999	7	[0, 0, 0]	n/a	0	0	0	n/a	n/a	0.0	0	0	0	FR2	0	R1036M
1409.055	1.847	710455	REC_WORD	2.517	n/a	HOOF	-999	7	[0, 0, 0]	n/a	0	0	0	n/a	n/a	0.0	0	0	0	FR2	0	R1036M
1410.902	2.994	711378	REC_WORD	4.364	n/a	FARM	-999	7	[0, 0, 0]	n/a	0	0	0	n/a	n/a	0.0	0	0	0	FR2	0	R1036M
1413.896	3.824	712875	REC_WORD	7.358	n/a	EGG	-999	7	[0, 0, 0]	n/a	0	0	0	n/a	n/a	0.0	0	0	0	FR2	0	R1036M
1417.72	3.284	714787	REC_WORD	11.182	n/a	STREAM	-999	7	[0, 0, 0]	n/a	0	0	0	n/a	n/a	0.0	0	0	0	FR2	0	R1036M
1421.004	15.543	716429	REC_WORD	14.466	n/a	RIVER	-999	7	[0, 0, 0]	n/a	0	0	0	n/a	n/a	0.0	0	0	0	FR2	0	R1036M
1436.547	10.848	724200	REC_END	n/a	n/a	n/a	-999	7	[0, 0, 0]	n/a	0	0	0	n/a	n/a	0.0	0	0	0	FR2	0	R1036M
1447.395	10.0	729624	COUNTDOWN_START	n/a	n/a	n/a	-999	8	[0, 0, 0]	n/a	0	1	0	n/a	n/a	0.0	0	0	0	FR2	0	R1036M
1447.395	10.428	729624	TRIAL	n/a	n/a	n/a	-999	8	[0, 0, 0]	n/a	0	1	0	n/a	n/a	0.0	0	0	0	FR2	0	R1036M
1457.823	0.007	734838	COUNTDOWN_END	n/a	n/a	n/a	-999	8	[0, 0, 0]	n/a	0	1	0	n/a	n/a	0.0	0	0	0	FR2	0	R1036M
1457.83	1.6	734841	ORIENT	n/a	n/a	n/a	-999	8	[0, 0, 0]	n/a	0	1	0	n/a	n/a	0.0	0	0	0	FR2	0	R1036M
1460.448	1.6	736150	WORD	n/a	wordpools/wordpool_EN.txt	SKUNK	1	8	[0, 0, 0]	n/a	0	1	0	n/a	n/a	0.0	0	0	0	FR2	0	R1036M
1463.015	1.6	737433	WORD	n/a	wordpools/wordpool_EN.txt	SHIP	2	8	[0, 0, 0]	n/a	0	1	0	n/a	n/a	0.0	0	0	0	FR2	0	R1036M
1465.2	4.6	738526	STIM_ON	n/a	n/a	n/a	-999	8	[0, 0, 0]	n/a	1	1	4600	LATD2	LATD3	1000.0	50	230	300	FR2	0	R1036M
1465.415	1.6	738633	WORD	n/a	wordpools/wordpool_EN.txt	BREAD	3	8	[0, 0, 0]	n/a	1	1	4600	LATD2	LATD3	1000.0	50	230	300	FR2	0	R1036M
1467.933	1.6	739892	WORD	n/a	wordpools/wordpool_EN.txt	BUSH	4	8	[0, 0, 0]	n/a	1	1	4600	LATD2	LATD3	1000.0	50	230	300	FR2	0	R1036M
1470.333	1.6	741092	WORD	n/a	wordpools/wordpool_EN.txt	CLOUD	5	8	[0, 0, 0]	n/a	0	1	0	n/a	n/a	0.0	0	0	0	FR2	0	R1036M
1472.833	1.6	742342	WORD	n/a	wordpools/wordpool_EN.txt	ROAD	6	8	[0, 0, 0]	n/a	0	1	0	n/a	n/a	0.0	0	0	0	FR2	0	R1036M
1475.083	4.6	743467	STIM_ON	n/a	n/a	n/a	-999	8	[0, 0, 0]	n/a	1	1	4600	LATD2	LATD3	1000.0	50	230	300	FR2	0	R1036M
1475.301	1.6	743576	WORD	n/a	wordpools/wordpool_EN.txt	SLIME	7	8	[0, 0, 0]	n/a	1	1	4600	LATD2	LATD3	1000.0	50	230	300	FR2	0	R1036M
1477.85	1.6	744851	WORD	n/a	wordpools/wordpool_EN.txt	LAMB	8	8	[0, 0, 0]	n/a	1	1	4600	LATD2	LATD3	1000.0	50	230	300	FR2	0	R1036M
1480.268	1.6	746059	WORD	n/a	wordpools/wordpool_EN.txt	HEART	9	8	[0, 0, 0]	n/a	0	1	0	n/a	n/a	0.0	0	0	0	FR2	0	R1036M
1482.851	1.6	747351	WORD	n/a	wordpools/wordpool_EN.txt	BRIDGE	10	8	[0, 0, 0]	n/a	0	1	0	n/a	n/a	0.0	0	0	0	FR2	0	R1036M
1485.057	4.6	748454	STIM_ON	n/a	n/a	n/a	-999	8	[0, 0, 0]	n/a	1	1	4600	LATD2	LATD3	1000.0	50	230	300	FR2	0	R1036M
1485.269	1.6	748560	WORD	n/a	wordpools/wordpool_EN.txt	LEAF	11	8	[0, 0, 0]	n/a	1	1	4600	LATD2	LATD3	1000.0	50	230	300	FR2	0	R1036M
1487.653	1.6	749752	WORD	n/a	wordpools/wordpool_EN.txt	PURSE	12	8	[0, 0, 0]	n/a	1	1	4600	LATD2	LATD3	1000.0	50	230	300	FR2	0	R1036M
1489.27	0.001	750560	DISTRACT_START	n/a	n/a	n/a	-999	8	[0, 0, 0]	n/a	1	1	4600	LATD2	LATD3	1000.0	50	230	300	FR2	0	R1036M
1489.271	0.016	750561	START	n/a	n/a	n/a	-999	8	[-999, -999, -999]	n/a	0	1	0	n/a	n/a	0.0	0	0	0	FR2	0	R1036M
1489.287	4.634	750569	PROB	4.613	n/a	n/a	-999	8	[4, 6, 8]	45	0	1	0	n/a	n/a	0.0	0	0	0	FR2	0	R1036M
1493.921	8.752	752886	PROB	8.722	n/a	n/a	-999	8	[6, 9, 3]	16	0	1	0	n/a	n/a	0.0	0	0	0	FR2	0	R1036M
1502.673	6.301	757261	PROB	6.267	n/a	n/a	-999	8	[4, 3, 2]	7	0	1	0	n/a	n/a	0.0	0	0	0	FR2	0	R1036M
1508.974	5.902	760412	PROB	5.902	n/a	n/a	-999	8	[2, 3, 9]	14	0	1	0	n/a	n/a	0.0	0	0	0	FR2	0	R1036M
1514.876	0.016	763362	STOP	n/a	n/a	n/a	-999	8	[-999, -999, -999]	n/a	0	1	0	n/a	n/a	0.0	0	0	0	FR2	0	R1036M
1514.892	1.067	763370	DISTRACT_END	n/a	n/a	n/a	-999	8	[0, 0, 0]	n/a	0	1	0	n/a	n/a	0.0	0	0	0	FR2	0	R1036M
1515.959	18.105	763904	REC_START	n/a	n/a	n/a	-999	8	[0, 0, 0]	n/a	0	1	0	n/a	n/a	0.0	0	0	0	FR2	0	R1036M
1534.064	5.611	772956	REC_WORD	18.105	n/a	EGG	-999	8	[0, 0, 0]	n/a	0	1	0	n/a	n/a	0.0	0	0	0	FR2	0	R1036M
1539.675	3.219	775761	REC_WORD	23.716	n/a	HOUSE	-999	8	[0, 0, 0]	n/a	0	1	0	n/a	n/a	0.0	0	0	0	FR2	0	R1036M
1542.894	3.077	777371	REC_WORD	26.935	n/a	LEAF	-999	8	[0, 0, 0]	n/a	0	1	0	n/a	n/a	0.0	0	0	0	FR2	0	R1036M
1545.971	14.096	778909	REC_END	n/a	n/a	n/a	-999	8	[0, 0, 0]	n/a	0	1	0	n/a	n/a	0.0	0	0	0	FR2	0	R1036M
1560.067	0.0	785957	TRIAL	n/a	n/a	n/a	-999	9	[0, 0, 0]	n/a	0	1	0	n/a	n/a	0.0	0	0	0	FR2	0	R1036M
1560.067	10.0	785957	COUNTDOWN_START	n/a	n/a	n/a	-999	9	[0, 0, 0]	n/a	0	1	0	n/a	n/a	0.0	0	0	0	FR2	0	R1036M
1570.495	0.008	791170	COUNTDOWN_END	n/a	n/a	n/a	-999	9	[0, 0, 0]	n/a	0	1	0	n/a	n/a	0.0	0	0	0	FR2	0	R1036M
1570.503	1.6	791174	ORIENT	n/a	n/a	n/a	-999	9	[0, 0, 0]	n/a	0	1	0	n/a	n/a	0.0	0	0	0	FR2	0	R1036M
1573.053	1.6	792449	WORD	n/a	wordpools/wordpool_EN.txt	EAR	1	9	[0, 0, 0]	n/a	0	1	0	n/a	n/a	0.0	0	0	0	FR2	0	R1036M
1575.587	1.6	793716	WORD	n/a	wordpools/wordpool_EN.txt	HOSE	2	9	[0, 0, 0]	n/a	0	1	0	n/a	n/a	0.0	0	0	0	FR2	0	R1036M
1577.842	4.6	794844	STIM_ON	n/a	n/a	n/a	-999	9	[0, 0, 0]	n/a	1	1	4600	LATD2	LATD3	1000.0	50	230	300	FR2	0	R1036M
1578.054	1.6	794950	WORD	n/a	wordpools/wordpool_EN.txt	BEE	3	9	[0, 0, 0]	n/a	1	1	4600	LATD2	LATD3	1000.0	50	230	300	FR2	0	R1036M
1580.538	1.6	796192	WORD	n/a	wordpools/wordpool_EN.txt	JAR	4	9	[0, 0, 0]	n/a	1	1	4600	LATD2	LATD3	1000.0	50	230	300	FR2	0	R1036M
1583.155	1.6	797500	WORD	n/a	wordpools/wordpool_EN.txt	DRESS	5	9	[0, 0, 0]	n/a	0	1	0	n/a	n/a	0.0	0	0	0	FR2	0	R1036M
1585.722	1.6	798783	WORD	n/a	wordpools/wordpool_EN.txt	TOOL	6	9	[0, 0, 0]	n/a	0	1	0	n/a	n/a	0.0	0	0	0	FR2	0	R1036M
1587.93	4.6	799887	STIM_ON	n/a	n/a	n/a	-999	9	[0, 0, 0]	n/a	1	1	4600	LATD2	LATD3	1000.0	50	230	300	FR2	0	R1036M
1588.139	1.6	799992	WORD	n/a	wordpools/wordpool_EN.txt	CAGE	7	9	[0, 0, 0]	n/a	1	1	4600	LATD2	LATD3	1000.0	50	230	300	FR2	0	R1036M
1590.556	1.6	801200	WORD	n/a	wordpools/wordpool_EN.txt	BRUSH	8	9	[0, 0, 0]	n/a	1	1	4600	LATD2	LATD3	1000.0	50	230	300	FR2	0	R1036M
1593.14	1.6	802492	WORD	n/a	wordpools/wordpool_EN.txt	SHIELD	9	9	[0, 0, 0]	n/a	0	1	0	n/a	n/a	0.0	0	0	0	FR2	0	R1036M
1595.64	1.6	803742	WORD	n/a	wordpools/wordpool_EN.txt	CLIFF	10	9	[0, 0, 0]	n/a	0	1	0	n/a	n/a	0.0	0	0	0	FR2	0	R1036M
1598.028	4.6	804936	STIM_ON	n/a	n/a	n/a	-999	9	[0, 0, 0]	n/a	1	1	4600	LATD2	LATD3	1000.0	50	230	300	FR2	0	R1036M
1598.241	1.6	805043	WORD	n/a	wordpools/wordpool_EN.txt	DART	11	9	[0, 0, 0]	n/a	1	1	4600	LATD2	LATD3	1000.0	50	230	300	FR2	0	R1036M
1600.625	1.6	806235	WORD	n/a	wordpools/wordpool_EN.txt	COW	12	9	[0, 0, 0]	n/a	1	1	4600	LATD2	LATD3	1000.0	50	230	300	FR2	0	R1036M
1602.242	0.001	807043	DISTRACT_START	n/a	n/a	n/a	-999	9	[0, 0, 0]	n/a	1	1	4600	LATD2	LATD3	1000.0	50	230	300	FR2	0	R1036M
1602.243	0.016	807044	START	n/a	n/a	n/a	-999	9	[-999, -999, -999]	n/a	0	1	0	n/a	n/a	0.0	0	0	0	FR2	0	R1036M
1602.259	6.234	807052	PROB	6.2	n/a	n/a	-999	9	[8, 4, 4]	32	0	1	0	n/a	n/a	0.0	0	0	0	FR2	0	R1036M
1608.493	6.035	810168	PROB	5.999	n/a	n/a	-999	9	[1, 5, 3]	7	0	1	0	n/a	n/a	0.0	0	0	0	FR2	0	R1036M
1614.528	5.084	813186	PROB	5.052	n/a	n/a	-999	9	[5, 5, 9]	19	0	1	0	n/a	n/a	0.0	0	0	0	FR2	0	R1036M
1619.612	6.096	815728	PROB	6.096	n/a	n/a	-999	9	[1, 1, 3]	5	0	1	0	n/a	n/a	0.0	0	0	0	FR2	0	R1036M
1625.708	0.005	818775	STOP	n/a	n/a	n/a	-999	9	[-999, -999, -999]	n/a	0	1	0	n/a	n/a	0.0	0	0	0	FR2	0	R1036M
1625.713	1.068	818778	DISTRACT_END	n/a	n/a	n/a	-999	9	[0, 0, 0]	n/a	0	1	0	n/a	n/a	0.0	0	0	0	FR2	0	R1036M
1626.781	3.669	819312	REC_START	n/a	n/a	n/a	-999	9	[0, 0, 0]	n/a	0	1	0	n/a	n/a	0.0	0	0	0	FR2	0	R1036M
1630.45	5.336	821146	REC_WORD	3.669	n/a	SHIP	-999	9	[0, 0, 0]	n/a	0	1	0	n/a	n/a	0.0	0	0	0	FR2	0	R1036M
1635.786	5.385	823814	REC_WORD	9.005	n/a	HOUSE	-999	9	[0, 0, 0]	n/a	0	1	0	n/a	n/a	0.0	0	0	0	FR2	0	R1036M
1641.171	3.291	826506	REC_WORD	14.39	n/a	GOAT	-999	9	[0, 0, 0]	n/a	0	1	0	n/a	n/a	0.0	0	0	0	FR2	0	R1036M
1644.462	3.573	828152	REC_WORD	17.681	n/a	SHEEP	-999	9	[0, 0, 0]	n/a	0	1	0	n/a	n/a	0.0	0	0	0	FR2	0	R1036M
1648.035	7.984	829938	REC_WORD	21.254	n/a	EGG	-999	9	[0, 0, 0]	n/a	0	1	0	n/a	n/a	0.0	0	0	0	FR2	0	R1036M
1656.019	0.771	833930	REC_WORD	29.238	n/a	POND	-999	9	[0, 0, 0]	n/a	0	1	0	n/a	n/a	0.0	0	0	0	FR2	0	R1036M
1656.79	22.884	834315	REC_END	n/a	n/a	n/a	-999	9	[0, 0, 0]	n/a	0	1	0	n/a	n/a	0.0	0	0	0	FR2	0	R1036M
1679.674	10.0	845757	COUNTDOWN_START	n/a	n/a	n/a	-999	10	[0, 0, 0]	n/a	0	0	0	n/a	n/a	0.0	0	0	0	FR2	0	R1036M
1679.674	10.428	845757	TRIAL	n/a	n/a	n/a	-999	10	[0, 0, 0]	n/a	0	0	0	n/a	n/a	0.0	0	0	0	FR2	0	R1036M
1690.102	0.007	850971	COUNTDOWN_END	n/a	n/a	n/a	-999	10	[0, 0, 0]	n/a	0	0	0	n/a	n/a	0.0	0	0	0	FR2	0	R1036M
1690.109	1.6	850974	ORIENT	n/a	n/a	n/a	-999	10	[0, 0, 0]	n/a	0	0	0	n/a	n/a	0.0	0	0	0	FR2	0	R1036M
1692.66	1.6	852249	WORD	n/a	wordpools/wordpool_EN.txt	SEAL	1	10	[0, 0, 0]	n/a	0	0	0	n/a	n/a	0.0	0	0	0	FR2	0	R1036M
1695.11	1.6	853474	WORD	n/a	wordpools/wordpool_EN.txt	WING	2	10	[0, 0, 0]	n/a	0	0	0	n/a	n/a	0.0	0	0	0	FR2	0	R1036M
1697.71	1.6	854774	WORD	n/a	wordpools/wordpool_EN.txt	BED	3	10	[0, 0, 0]	n/a	0	0	0	n/a	n/a	0.0	0	0	0	FR2	0	R1036M
1700.194	1.6	856016	WORD	n/a	wordpools/wordpool_EN.txt	PANTS	4	10	[0, 0, 0]	n/a	0	0	0	n/a	n/a	0.0	0	0	0	FR2	0	R1036M
1702.612	1.6	857225	WORD	n/a	wordpools/wordpool_EN.txt	FOX	5	10	[0, 0, 0]	n/a	0	0	0	n/a	n/a	0.0	0	0	0	FR2	0	R1036M
1705.179	1.6	858509	WORD	n/a	wordpools/wordpool_EN.txt	FLAME	6	10	[0, 0, 0]	n/a	0	0	0	n/a	n/a	0.0	0	0	0	FR2	0	R1036M
1707.579	1.6	859709	WORD	n/a	wordpools/wordpool_EN.txt	SHRIMP	7	10	[0, 0, 0]	n/a	0	0	0	n/a	n/a	0.0	0	0	0	FR2	0	R1036M
1709.98	1.6	860909	WORD	n/a	wordpools/wordpool_EN.txt	CAR	8	10	[0, 0, 0]	n/a	0	0	0	n/a	n/a	0.0	0	0	0	FR2	0	R1036M
1712.547	1.6	862192	WORD	n/a	wordpools/wordpool_EN.txt	BOMB	9	10	[0, 0, 0]	n/a	0	0	0	n/a	n/a	0.0	0	0	0	FR2	0	R1036M
1715.064	1.6	863451	WORD	n/a	wordpools/wordpool_EN.txt	STORM	10	10	[0, 0, 0]	n/a	0	0	0	n/a	n/a	0.0	0	0	0	FR2	0	R1036M
1717.531	1.6	864684	WORD	n/a	wordpools/wordpool_EN.txt	PIPE	11	10	[0, 0, 0]	n/a	0	0	0	n/a	n/a	0.0	0	0	0	FR2	0	R1036M
1720.048	1.6	865943	WORD	n/a	wordpools/wordpool_EN.txt	WORLD	12	10	[0, 0, 0]	n/a	0	0	0	n/a	n/a	0.0	0	0	0	FR2	0	R1036M
1721.665	0.001	866751	DISTRACT_START	n/a	n/a	n/a	-999	10	[0, 0, 0]	n/a	0	0	0	n/a	n/a	0.0	0	0	0	FR2	0	R1036M
1721.666	0.016	866752	START	n/a	n/a	n/a	-999	10	[-999, -999, -999]	n/a	0	0	0	n/a	n/a	0.0	0	0	0	FR2	0	R1036M
1721.682	3.05	866760	PROB	3.018	n/a	n/a	-999	10	[4, 6, 3]	9	0	0	0	n/a	n/a	0.0	0	0	0	FR2	0	R1036M
1724.732	4.501	868285	PROB	4.472	n/a	n/a	-999	10	[4, 4, 4]	15	0	0	0	n/a	n/a	0.0	0	0	0	FR2	0	R1036M
1729.233	7.168	870535	PROB	7.139	n/a	n/a	-999	10	[3, 3, 9]	15	0	0	0	n/a	n/a	0.0	0	0	0	FR2	0	R1036M
1736.401	7.027	874119	PROB	7.027	n/a	n/a	-999	10	[6, 4, 5]	20	0	0	0	n/a	n/a	0.0	0	0	0	FR2	0	R1036M
1743.428	0.008	877632	STOP	n/a	n/a	n/a	-999	10	[-999, -999, -999]	n/a	0	0	0	n/a	n/a	0.0	0	0	0	FR2	0	R1036M
1743.436	1.217	877636	DISTRACT_END	n/a	n/a	n/a	-999	10	[0, 0, 0]	n/a	0	0	0	n/a	n/a	0.0	0	0	0	FR2	0	R1036M
1744.653	2.226	878245	REC_START	n/a	n/a	n/a	-999	10	[0, 0, 0]	n/a	0	0	0	n/a	n/a	0.0	0	0	0	FR2	0	R1036M
1746.879	2.232	879357	REC_WORD	2.226	n/a	STREET	-999	10	[0, 0, 0]	n/a	0	0	0	n/a	n/a	0.0	0	0	0	FR2	0	R1036M
1749.111	3.582	880473	REC_WORD	4.458	n/a	CAR	-999	10	[0, 0, 0]	n/a	0	0	0	n/a	n/a	0.0	0	0	0	FR2	0	R1036M
1752.693	2.751	882264	REC_WORD	8.04	n/a	BAND	-999	10	[0, 0, 0]	n/a	0	0	0	n/a	n/a	0.0	0	0	0	FR2	0	R1036M
1755.444	2.855	883640	REC_WORD	10.791	n/a	RUG	-999	10	[0, 0, 0]	n/a	0	0	0	n/a	n/a	0.0	0	0	0	FR2	0	R1036M
1758.299	6.192	885067	REC_WORD	13.646	n/a	STREAM	-999	10	[0, 0, 0]	n/a	0	0	0	n/a	n/a	0.0	0	0	0	FR2	0	R1036M
1764.491	10.173	888163	REC_WORD	19.838	n/a	RIVER	-999	10	[0, 0, 0]	n/a	0	0	0	n/a	n/a	0.0	0	0	0	FR2	0	R1036M
1774.664	45.787	893249	REC_END	n/a	n/a	n/a	-999	10	[0, 0, 0]	n/a	0	0	0	n/a	n/a	0.0	0	0	0	FR2	0	R1036M
1820.451	0.0	916141	TRIAL	n/a	n/a	n/a	-999	11	[0, 0, 0]	n/a	0	1	0	n/a	n/a	0.0	0	0	0	FR2	0	R1036M
1820.451	10.0	916141	COUNTDOWN_START	n/a	n/a	n/a	-999	11	[0, 0, 0]	n/a	0	1	0	n/a	n/a	0.0	0	0	0	FR2	0	R1036M
1830.879	0.007	921355	COUNTDOWN_END	n/a	n/a	n/a	-999	11	[0, 0, 0]	n/a	0	1	0	n/a	n/a	0.0	0	0	0	FR2	0	R1036M
1830.886	1.6	921359	ORIENT	n/a	n/a	n/a	-999	11	[0, 0, 0]	n/a	0	1	0	n/a	n/a	0.0	0	0	0	FR2	0	R1036M
1833.354	1.6	922593	WORD	n/a	wordpools/wordpool_EN.txt	TOAD	1	11	[0, 0, 0]	n/a	0	1	0	n/a	n/a	0.0	0	0	0	FR2	0	R1036M
1835.82	1.6	923825	WORD	n/a	wordpools/wordpool_EN.txt	BARN	2	11	[0, 0, 0]	n/a	0	1	0	n/a	n/a	0.0	0	0	0	FR2	0	R1036M
1838.055	4.6	924943	STIM_ON	n/a	n/a	n/a	-999	11	[0, 0, 0]	n/a	1	1	4600	LATD2	LATD3	1000.0	50	230	300	FR2	0	R1036M
1838.271	1.6	925051	WORD	n/a	wordpools/wordpool_EN.txt	FAN	3	11	[0, 0, 0]	n/a	1	1	4600	LATD2	LATD3	1000.0	50	230	300	FR2	0	R1036M
1840.738	1.6	926284	WORD	n/a	wordpools/wordpool_EN.txt	POOL	4	11	[0, 0, 0]	n/a	1	1	4600	LATD2	LATD3	1000.0	50	230	300	FR2	0	R1036M
1843.305	1.6	927568	WORD	n/a	wordpools/wordpool_EN.txt	GATE	5	11	[0, 0, 0]	n/a	0	1	0	n/a	n/a	0.0	0	0	0	FR2	0	R1036M
1845.706	1.6	928768	WORD	n/a	wordpools/wordpool_EN.txt	STRING	6	11	[0, 0, 0]	n/a	0	1	0	n/a	n/a	0.0	0	0	0	FR2	0	R1036M
1847.914	4.6	929872	STIM_ON	n/a	n/a	n/a	-999	11	[0, 0, 0]	n/a	1	1	4600	LATD2	LATD3	1000.0	50	230	300	FR2	0	R1036M
1848.123	1.6	929977	WORD	n/a	wordpools/wordpool_EN.txt	LAMP	7	11	[0, 0, 0]	n/a	1	1	4600	LATD2	LATD3	1000.0	50	230	300	FR2	0	R1036M
1850.674	1.6	931252	WORD	n/a	wordpools/wordpool_EN.txt	YARD	8	11	[0, 0, 0]	n/a	1	1	4600	LATD2	LATD3	1000.0	50	230	300	FR2	0	R1036M
1853.174	1.6	932502	WORD	n/a	wordpools/wordpool_EN.txt	THREAD	9	11	[0, 0, 0]	n/a	0	1	0	n/a	n/a	0.0	0	0	0	FR2	0	R1036M
1855.708	1.6	933769	WORD	n/a	wordpools/wordpool_EN.txt	ROSE	10	11	[0, 0, 0]	n/a	0	1	0	n/a	n/a	0.0	0	0	0	FR2	0	R1036M
1858.063	4.6	934946	STIM_ON	n/a	n/a	n/a	-999	11	[0, 0, 0]	n/a	1	1	4600	LATD2	LATD3	1000.0	50	230	300	FR2	0	R1036M
1858.275	1.6	935052	WORD	n/a	wordpools/wordpool_EN.txt	HILL	11	11	[0, 0, 0]	n/a	1	1	4600	LATD2	LATD3	1000.0	50	230	300	FR2	0	R1036M
1860.759	1.6	936294	WORD	n/a	wordpools/wordpool_EN.txt	WHALE	12	11	[0, 0, 0]	n/a	1	1	4600	LATD2	LATD3	1000.0	50	230	300	FR2	0	R1036M
1862.376	0.0	937103	DISTRACT_START	n/a	n/a	n/a	-999	11	[0, 0, 0]	n/a	1	1	4600	LATD2	LATD3	1000.0	50	230	300	FR2	0	R1036M
1862.376	0.016	937103	START	n/a	n/a	n/a	-999	11	[-999, -999, -999]	n/a	0	1	0	n/a	n/a	0.0	0	0	0	FR2	0	R1036M
1862.392	5.652	937111	PROB	5.627	n/a	n/a	-999	11	[3, 9, 8]	32	0	1	0	n/a	n/a	0.0	0	0	0	FR2	0	R1036M
1868.044	10.602	939937	PROB	10.576	n/a	n/a	-999	11	[3, 8, 5]	16	0	1	0	n/a	n/a	0.0	0	0	0	FR2	0	R1036M
1878.646	6.654	945237	PROB	6.654	n/a	n/a	-999	11	[3, 6, 2]	11	0	1	0	n/a	n/a	0.0	0	0	0	FR2	0	R1036M
1885.3	0.014	948564	STOP	n/a	n/a	n/a	-999	11	[-999, -999, -999]	n/a	0	1	0	n/a	n/a	0.0	0	0	0	FR2	0	R1036M
1885.314	1.167	948571	DISTRACT_END	n/a	n/a	n/a	-999	11	[0, 0, 0]	n/a	0	1	0	n/a	n/a	0.0	0	0	0	FR2	0	R1036M
1886.481	2.168	949155	REC_START	n/a	n/a	n/a	-999	11	[0, 0, 0]	n/a	0	1	0	n/a	n/a	0.0	0	0	0	FR2	0	R1036M
1888.649	2.017	950238	REC_WORD	2.168	n/a	SPRING	-999	11	[0, 0, 0]	n/a	0	1	0	n/a	n/a	0.0	0	0	0	FR2	0	R1036M
1890.666	2.453	951247	REC_WORD	4.185	n/a	ROSE	-999	11	[0, 0, 0]	n/a	0	1	0	n/a	n/a	0.0	0	0	0	FR2	0	R1036M
1893.119	2.296	952473	REC_WORD	6.638	n/a	TOAD	-999	11	[0, 0, 0]	n/a	0	1	0	n/a	n/a	0.0	0	0	0	FR2	0	R1036M
1895.415	3.313	953621	REC_WORD	8.934	n/a	HILL	-999	11	[0, 0, 0]	n/a	0	1	0	n/a	n/a	0.0	0	0	0	FR2	0	R1036M
1898.728	6.129	955278	REC_WORD	12.247	n/a	FROG	-999	11	[0, 0, 0]	n/a	0	1	0	n/a	n/a	0.0	0	0	0	FR2	0	R1036M
1904.857	9.612	958342	REC_WORD	18.376	n/a	FLAG	-999	11	[0, 0, 0]	n/a	0	1	0	n/a	n/a	0.0	0	0	0	FR2	0	R1036M
1914.469	2.026	963148	REC_WORD	27.988	n/a	BED	-999	11	[0, 0, 0]	n/a	0	1	0	n/a	n/a	0.0	0	0	0	FR2	0	R1036M
1916.495	27.863	964161	REC_END	n/a	n/a	n/a	-999	11	[0, 0, 0]	n/a	0	1	0	n/a	n/a	0.0	0	0	0	FR2	0	R1036M
1944.358	10.0	978091	COUNTDOWN_START	n/a	n/a	n/a	-999	12	[0, 0, 0]	n/a	0	1	0	n/a	n/a	0.0	0	0	0	FR2	0	R1036M
1944.359	10.427	978092	TRIAL	n/a	n/a	n/a	-999	12	[0, 0, 0]	n/a	0	1	0	n/a	n/a	0.0	0	0	0	FR2	0	R1036M
1954.786	0.008	983305	COUNTDOWN_END	n/a	n/a	n/a	-999	12	[0, 0, 0]	n/a	0	1	0	n/a	n/a	0.0	0	0	0	FR2	0	R1036M
1954.794	1.6	983309	ORIENT	n/a	n/a	n/a	-999	12	[0, 0, 0]	n/a	0	1	0	n/a	n/a	0.0	0	0	0	FR2	0	R1036M
1957.123	4.6	984474	STIM_ON	n/a	n/a	n/a	-999	12	[0, 0, 0]	n/a	1	1	4600	LATD2	LATD3	1000.0	50	230	300	FR2	0	R1036M
1957.328	1.6	984576	WORD	n/a	wordpools/wordpool_EN.txt	PEN	1	12	[0, 0, 0]	n/a	1	1	4600	LATD2	LATD3	1000.0	50	230	300	FR2	0	R1036M
1959.711	1.6	985767	WORD	n/a	wordpools/wordpool_EN.txt	SHEEP	2	12	[0, 0, 0]	n/a	1	1	4600	LATD2	LATD3	1000.0	50	230	300	FR2	0	R1036M
1962.095	1.6	986959	WORD	n/a	wordpools/wordpool_EN.txt	BOOK	3	12	[0, 0, 0]	n/a	0	1	0	n/a	n/a	0.0	0	0	0	FR2	0	R1036M
1964.679	1.6	988251	WORD	n/a	wordpools/wordpool_EN.txt	SKY	4	12	[0, 0, 0]	n/a	0	1	0	n/a	n/a	0.0	0	0	0	FR2	0	R1036M
1966.909	4.6	989366	STIM_ON	n/a	n/a	n/a	-999	12	[0, 0, 0]	n/a	1	1	4600	LATD2	LATD3	1000.0	50	230	300	FR2	0	R1036M
1967.113	1.6	989468	WORD	n/a	wordpools/wordpool_EN.txt	FLAG	5	12	[0, 0, 0]	n/a	1	1	4600	LATD2	LATD3	1000.0	50	230	300	FR2	0	R1036M
1969.563	1.6	990693	WORD	n/a	wordpools/wordpool_EN.txt	STAIR	6	12	[0, 0, 0]	n/a	1	1	4600	LATD2	LATD3	1000.0	50	230	300	FR2	0	R1036M
1972.131	1.6	991977	WORD	n/a	wordpools/wordpool_EN.txt	FUDGE	7	12	[0, 0, 0]	n/a	0	1	0	n/a	n/a	0.0	0	0	0	FR2	0	R1036M
1974.664	1.6	993244	WORD	n/a	wordpools/wordpool_EN.txt	HAND	8	12	[0, 0, 0]	n/a	0	1	0	n/a	n/a	0.0	0	0	0	FR2	0	R1036M
1977.015	4.6	994419	STIM_ON	n/a	n/a	n/a	-999	12	[0, 0, 0]	n/a	1	1	4600	LATD2	LATD3	1000.0	50	230	300	FR2	0	R1036M
1977.231	1.6	994527	WORD	n/a	wordpools/wordpool_EN.txt	CLAY	9	12	[0, 0, 0]	n/a	1	1	4600	LATD2	LATD3	1000.0	50	230	300	FR2	0	R1036M
1979.815	1.6	995819	WORD	n/a	wordpools/wordpool_EN.txt	DOLL	10	12	[0, 0, 0]	n/a	1	1	4600	LATD2	LATD3	1000.0	50	230	300	FR2	0	R1036M
1982.199	1.6	997011	WORD	n/a	wordpools/wordpool_EN.txt	BROOM	11	12	[0, 0, 0]	n/a	0	1	0	n/a	n/a	0.0	0	0	0	FR2	0	R1036M
1984.716	1.6	998269	WORD	n/a	wordpools/wordpool_EN.txt	FORT	12	12	[0, 0, 0]	n/a	0	1	0	n/a	n/a	0.0	0	0	0	FR2	0	R1036M
1986.333	0.001	999078	DISTRACT_START	n/a	n/a	n/a	-999	12	[0, 0, 0]	n/a	0	1	0	n/a	n/a	0.0	0	0	0	FR2	0	R1036M
1986.334	0.016	999078	START	n/a	n/a	n/a	-999	12	[-999, -999, -999]	n/a	0	1	0	n/a	n/a	0.0	0	0	0	FR2	0	R1036M
1986.35	7.351	999086	PROB	7.326	n/a	n/a	-999	12	[2, 4, 6]	24	0	1	0	n/a	n/a	0.0	0	0	0	FR2	0	R1036M
1993.701	5.085	1002762	PROB	5.055	n/a	n/a	-999	12	[9, 6, 9]	28	0	1	0	n/a	n/a	0.0	0	0	0	FR2	0	R1036M
1998.786	8.17	1005304	PROB	8.17	n/a	n/a	-999	12	[7, 5, 6]	17	0	1	0	n/a	n/a	0.0	0	0	0	FR2	0	R1036M
2006.956	0.015	1009389	STOP	n/a	n/a	n/a	-999	12	[-999, -999, -999]	n/a	0	1	0	n/a	n/a	0.0	0	0	0	FR2	0	R1036M
2006.971	1.151	1009396	DISTRACT_END	n/a	n/a	n/a	-999	12	[0, 0, 0]	n/a	0	1	0	n/a	n/a	0.0	0	0	0	FR2	0	R1036M
2008.122	2.352	1009972	REC_START	n/a	n/a	n/a	-999	12	[0, 0, 0]	n/a	0	1	0	n/a	n/a	0.0	0	0	0	FR2	0	R1036M
2010.474	4.482	1011148	REC_WORD	2.352	n/a	STAR	-999	12	[0, 0, 0]	n/a	0	1	0	n/a	n/a	0.0	0	0	0	FR2	0	R1036M
2014.956	2.876	1013388	REC_WORD	6.834	n/a	HAND	-999	12	[0, 0, 0]	n/a	0	1	0	n/a	n/a	0.0	0	0	0	FR2	0	R1036M
2017.832	2.866	1014826	REC_WORD	9.71	n/a	DOLL	-999	12	[0, 0, 0]	n/a	0	1	0	n/a	n/a	0.0	0	0	0	FR2	0	R1036M
2020.698	4.137	1016259	REC_WORD	12.576	n/a	FORT	-999	12	[0, 0, 0]	n/a	0	1	0	n/a	n/a	0.0	0	0	0	FR2	0	R1036M
2024.835	2.651	1018328	REC_WORD	16.713	n/a	FRUIT	-999	12	[0, 0, 0]	n/a	0	1	0	n/a	n/a	0.0	0	0	0	FR2	0	R1036M
2027.486	2.969	1019653	REC_WORD	19.364	n/a	BAND	-999	12	[0, 0, 0]	n/a	0	1	0	n/a	n/a	0.0	0	0	0	FR2	0	R1036M
2030.455	5.393	1021137	REC_WORD	22.333	n/a	SKY	-999	12	[0, 0, 0]	n/a	0	1	0	n/a	n/a	0.0	0	0	0	FR2	0	R1036M
2035.848	2.283	1023834	REC_WORD	27.726	n/a	RIVER	-999	12	[0, 0, 0]	n/a	0	1	0	n/a	n/a	0.0	0	0	0	FR2	0	R1036M
2038.131	15.132	1024975	REC_END	n/a	n/a	n/a	-999	12	[0, 0, 0]	n/a	0	1	0	n/a	n/a	0.0	0	0	0	FR2	0	R1036M
2053.263	0.0	1032541	TRIAL	n/a	n/a	n/a	-999	13	[0, 0, 0]	n/a	0	1	0	n/a	n/a	0.0	0	0	0	FR2	0	R1036M
2053.263	10.0	1032541	COUNTDOWN_START	n/a	n/a	n/a	-999	13	[0, 0, 0]	n/a	0	1	0	n/a	n/a	0.0	0	0	0	FR2	0	R1036M
