onset	duration	sample	trial_type	response_time	stim_file	item_name	serialpos	list	test	answer	stimulation	stim_list	stim_duration	anode_label	cathode_label	amplitude	pulse_freq	n_pulses	pulse_width	experiment	session	subject
0.0	28.628	9510	SESS_START	n/a	n/a	n/a	-999	-999	[0, 0, 0]	n/a	0	0	0	n/a	n/a	0.0	0	0	0	FR2	2	R1177M
28.628	10.0	23823	COUNTDOWN_START	n/a	n/a	n/a	-999	-999	[0, 0, 0]	n/a	0	0	0	n/a	n/a	0.0	0	0	0	FR2	2	R1177M
39.056	3.476	29036	COUNTDOWN_END	n/a	n/a	n/a	-999	-999	[0, 0, 0]	n/a	0	0	0	n/a	n/a	0.0	0	0	0	FR2	2	R1177M
42.532	1.6	30774	PRACTICE_WORD	n/a	n/a	TONGUE	1	-1	[0, 0, 0]	n/a	0	0	0	n/a	n/a	0.0	0	0	0	FR2	2	R1177M
44.998	1.6	32007	PRACTICE_WORD	n/a	n/a	WATCH	2	-1	[0, 0, 0]	n/a	0	0	0	n/a	n/a	0.0	0	0	0	FR2	2	R1177M
47.55	1.6	33283	PRACTICE_WORD	n/a	n/a	ATTIC	3	-1	[0, 0, 0]	n/a	0	0	0	n/a	n/a	0.0	0	0	0	FR2	2	R1177M
50.049	1.6	34532	PRACTICE_WORD	n/a	n/a	BEAM	4	-1	[0, 0, 0]	n/a	0	0	0	n/a	n/a	0.0	0	0	0	FR2	2	R1177M
52.551	1.6	35783	PRACTICE_WORD	n/a	n/a	FLOOD	5	-1	[0, 0, 0]	n/a	0	0	0	n/a	n/a	0.0	0	0	0	FR2	2	R1177M
55.1	1.6	37058	PRACTICE_WORD	n/a	n/a	COTTON	6	-1	[0, 0, 0]	n/a	0	0	0	n/a	n/a	0.0	0	0	0	FR2	2	R1177M
57.634	1.6	38324	PRACTICE_WORD	n/a	n/a	RING	7	-1	[0, 0, 0]	n/a	0	0	0	n/a	n/a	0.0	0	0	0	FR2	2	R1177M
60.134	1.6	39574	PRACTICE_WORD	n/a	n/a	IRON	8	-1	[0, 0, 0]	n/a	0	0	0	n/a	n/a	0.0	0	0	0	FR2	2	R1177M
62.735	1.6	40875	PRACTICE_WORD	n/a	n/a	RHINO	9	-1	[0, 0, 0]	n/a	0	0	0	n/a	n/a	0.0	0	0	0	FR2	2	R1177M
65.236	1.6	42125	PRACTICE_WORD	n/a	n/a	WAGON	10	-1	[0, 0, 0]	n/a	0	0	0	n/a	n/a	0.0	0	0	0	FR2	2	R1177M
67.753	1.6	43384	PRACTICE_WORD	n/a	n/a	CAMEL	11	-1	[0, 0, 0]	n/a	0	0	0	n/a	n/a	0.0	0	0	0	FR2	2	R1177M
70.271	1.6	44642	PRACTICE_WORD	n/a	n/a	CHEST	12	-1	[0, 0, 0]	n/a	0	0	0	n/a	n/a	0.0	0	0	0	FR2	2	R1177M
71.887	0.0	45450	PRACTICE_DISTRACT_START	n/a	n/a	n/a	-999	-1	[0, 0, 0]	n/a	0	0	0	n/a	n/a	0.0	0	0	0	FR2	2	R1177M
71.887	0.016	45450	START	n/a	n/a	n/a	-999	-1	[-999, -999, -999]	n/a	0	0	0	n/a	n/a	0.0	0	0	0	FR2	2	R1177M
71.903	7.085	45458	PROB	7.06	n/a	n/a	-999	-1	[9, 1, 8]	18	0	0	0	n/a	n/a	0.0	0	0	0	FR2	2	R1177M
78.988	5.485	49001	PROB	5.456	n/a	n/a	-999	-1	[9, 2, 4]	14	0	0	0	n/a	n/a	0.0	0	0	0	FR2	2	R1177M
84.473	4.4	51743	PROB	4.37	n/a	n/a	-999	-1	[2, 5, 4]	11	0	0	0	n/a	n/a	0.0	0	0	0	FR2	2	R1177M
88.873	8.363	53943	PROB	8.363	n/a	n/a	-999	-1	[6, 5, 4]	14	0	0	0	n/a	n/a	0.0	0	0	0	FR2	2	R1177M
97.236	0.007	58124	STOP	n/a	n/a	n/a	-999	-1	[-999, -999, -999]	n/a	0	0	0	n/a	n/a	0.0	0	0	0	FR2	2	R1177M
97.243	0.684	58127	PRACTICE_DISTRACT_END	n/a	n/a	n/a	-999	-1	[0, 0, 0]	n/a	0	0	0	n/a	n/a	0.0	0	0	0	FR2	2	R1177M
97.927	30.516	58469	PRACTICE_REC_START	n/a	n/a	n/a	-999	-1	[0, 0, 0]	n/a	0	0	0	n/a	n/a	0.0	0	0	0	FR2	2	R1177M
128.443	12.125	73726	PRACTICE_REC_END	n/a	n/a	n/a	-999	-1	[0, 0, 0]	n/a	0	0	0	n/a	n/a	0.0	0	0	0	FR2	2	R1177M
140.568	0.0	79788	TRIAL	n/a	n/a	n/a	-999	1	[0, 0, 0]	n/a	0	0	0	n/a	n/a	0.0	0	0	0	FR2	2	R1177M
140.568	10.0	79788	COUNTDOWN_START	n/a	n/a	n/a	-999	1	[0, 0, 0]	n/a	0	0	0	n/a	n/a	0.0	0	0	0	FR2	2	R1177M
150.996	0.006	85002	COUNTDOWN_END	n/a	n/a	n/a	-999	1	[0, 0, 0]	n/a	0	0	0	n/a	n/a	0.0	0	0	0	FR2	2	R1177M
151.002	1.6	85005	ORIENT	n/a	n/a	n/a	-999	1	[0, 0, 0]	n/a	0	0	0	n/a	n/a	0.0	0	0	0	FR2	2	R1177M
153.537	1.6	86272	WORD	n/a	wordpools/wordpool_EN.txt	CANE	1	1	[0, 0, 0]	n/a	0	0	0	n/a	n/a	0.0	0	0	0	FR2	2	R1177M
156.086	1.6	87546	WORD	n/a	wordpools/wordpool_EN.txt	MOLE	2	1	[0, 0, 0]	n/a	0	0	0	n/a	n/a	0.0	0	0	0	FR2	2	R1177M
158.703	1.6	88855	WORD	n/a	wordpools/wordpool_EN.txt	CUBE	3	1	[0, 0, 0]	n/a	0	0	0	n/a	n/a	0.0	0	0	0	FR2	2	R1177M
161.305	1.6	90156	WORD	n/a	wordpools/wordpool_EN.txt	OAK	4	1	[0, 0, 0]	n/a	0	0	0	n/a	n/a	0.0	0	0	0	FR2	2	R1177M
163.788	1.6	91397	WORD	n/a	wordpools/wordpool_EN.txt	BOY	5	1	[0, 0, 0]	n/a	0	0	0	n/a	n/a	0.0	0	0	0	FR2	2	R1177M
166.172	1.6	92589	WORD	n/a	wordpools/wordpool_EN.txt	ANT	6	1	[0, 0, 0]	n/a	0	0	0	n/a	n/a	0.0	0	0	0	FR2	2	R1177M
168.605	1.6	93805	WORD	n/a	wordpools/wordpool_EN.txt	DEER	7	1	[0, 0, 0]	n/a	0	0	0	n/a	n/a	0.0	0	0	0	FR2	2	R1177M
171.19	1.6	95098	WORD	n/a	wordpools/wordpool_EN.txt	DIME	8	1	[0, 0, 0]	n/a	0	0	0	n/a	n/a	0.0	0	0	0	FR2	2	R1177M
173.656	1.6	96331	WORD	n/a	wordpools/wordpool_EN.txt	BRICK	9	1	[0, 0, 0]	n/a	0	0	0	n/a	n/a	0.0	0	0	0	FR2	2	R1177M
176.107	1.6	97556	WORD	n/a	wordpools/wordpool_EN.txt	STEAM	10	1	[0, 0, 0]	n/a	0	0	0	n/a	n/a	0.0	0	0	0	FR2	2	R1177M
178.624	1.6	98815	WORD	n/a	wordpools/wordpool_EN.txt	BENCH	11	1	[0, 0, 0]	n/a	0	0	0	n/a	n/a	0.0	0	0	0	FR2	2	R1177M
181.058	1.6	100031	WORD	n/a	wordpools/wordpool_EN.txt	PIG	12	1	[0, 0, 0]	n/a	0	0	0	n/a	n/a	0.0	0	0	0	FR2	2	R1177M
182.675	0.0	100840	DISTRACT_START	n/a	n/a	n/a	-999	1	[0, 0, 0]	n/a	0	0	0	n/a	n/a	0.0	0	0	0	FR2	2	R1177M
182.675	0.016	100840	START	n/a	n/a	n/a	-999	1	[-999, -999, -999]	n/a	0	0	0	n/a	n/a	0.0	0	0	0	FR2	2	R1177M
182.691	11.053	100848	PROB	11.032	n/a	n/a	-999	1	[7, 3, 8]	14	0	0	0	n/a	n/a	0.0	0	0	0	FR2	2	R1177M
193.744	5.317	106374	PROB	5.283	n/a	n/a	-999	1	[6, 4, 6]	15	0	0	0	n/a	n/a	0.0	0	0	0	FR2	2	R1177M
199.061	6.086	109032	PROB	6.086	n/a	n/a	-999	1	[8, 7, 4]	16	0	0	0	n/a	n/a	0.0	0	0	0	FR2	2	R1177M
205.147	0.016	112075	STOP	n/a	n/a	n/a	-999	1	[-999, -999, -999]	n/a	0	0	0	n/a	n/a	0.0	0	0	0	FR2	2	R1177M
205.163	1.168	112083	DISTRACT_END	n/a	n/a	n/a	-999	1	[0, 0, 0]	n/a	0	0	0	n/a	n/a	0.0	0	0	0	FR2	2	R1177M
206.331	9.403	112667	REC_START	n/a	n/a	n/a	-999	1	[0, 0, 0]	n/a	0	0	0	n/a	n/a	0.0	0	0	0	FR2	2	R1177M
215.734	5.287	117368	REC_WORD	9.403	n/a	APPLE	-999	1	[0, 0, 0]	n/a	0	0	0	n/a	n/a	0.0	0	0	0	FR2	2	R1177M
221.021	9.918	120011	REC_WORD_VV	14.69	n/a	<>	-999	1	[0, 0, 0]	n/a	0	0	0	n/a	n/a	0.0	0	0	0	FR2	2	R1177M
230.939	5.401	124970	REC_WORD_VV	24.608	n/a	<>	-999	1	[0, 0, 0]	n/a	0	0	0	n/a	n/a	0.0	0	0	0	FR2	2	R1177M
236.34	20.883	127670	REC_END	n/a	n/a	n/a	-999	1	[0, 0, 0]	n/a	0	0	0	n/a	n/a	0.0	0	0	0	FR2	2	R1177M
257.223	0.0	138111	TRIAL	n/a	n/a	n/a	-999	2	[0, 0, 0]	n/a	0	1	0	n/a	n/a	0.0	0	0	0	FR2	2	R1177M
257.223	10.0	138111	COUNTDOWN_START	n/a	n/a	n/a	-999	2	[0, 0, 0]	n/a	0	1	0	n/a	n/a	0.0	0	0	0	FR2	2	R1177M
267.651	0.007	143324	COUNTDOWN_END	n/a	n/a	n/a	-999	2	[0, 0, 0]	n/a	0	1	0	n/a	n/a	0.0	0	0	0	FR2	2	R1177M
267.658	1.6	143328	ORIENT	n/a	n/a	n/a	-999	2	[0, 0, 0]	n/a	0	1	0	n/a	n/a	0.0	0	0	0	FR2	2	R1177M
269.816	4.6	144407	STIM_ON	n/a	n/a	n/a	-999	2	[0, 0, 0]	n/a	1	1	4600	LG50	LG51	1000.0	50	230	300	FR2	2	R1177M
270.025	1.6	144511	WORD	n/a	wordpools/wordpool_EN.txt	ROCK	1	2	[0, 0, 0]	n/a	1	1	4600	LG50	LG51	1000.0	50	230	300	FR2	2	R1177M
272.526	1.6	145762	WORD	n/a	wordpools/wordpool_EN.txt	STAIR	2	2	[0, 0, 0]	n/a	1	1	4600	LG50	LG51	1000.0	50	230	300	FR2	2	R1177M
275.043	1.6	147020	WORD	n/a	wordpools/wordpool_EN.txt	CUP	3	2	[0, 0, 0]	n/a	0	1	0	n/a	n/a	0.0	0	0	0	FR2	2	R1177M
277.544	1.6	148271	WORD	n/a	wordpools/wordpool_EN.txt	TOY	4	2	[0, 0, 0]	n/a	0	1	0	n/a	n/a	0.0	0	0	0	FR2	2	R1177M
279.946	4.6	149471	STIM_ON	n/a	n/a	n/a	-999	2	[0, 0, 0]	n/a	1	1	4600	LG50	LG51	1000.0	50	230	300	FR2	2	R1177M
280.161	1.6	149579	WORD	n/a	wordpools/wordpool_EN.txt	PIPE	5	2	[0, 0, 0]	n/a	1	1	4600	LG50	LG51	1000.0	50	230	300	FR2	2	R1177M
282.744	1.6	150870	WORD	n/a	wordpools/wordpool_EN.txt	INK	6	2	[0, 0, 0]	n/a	1	1	4600	LG50	LG51	1000.0	50	230	300	FR2	2	R1177M
285.128	1.6	152062	WORD	n/a	wordpools/wordpool_EN.txt	NOSE	7	2	[0, 0, 0]	n/a	0	1	0	n/a	n/a	0.0	0	0	0	FR2	2	R1177M
287.612	1.6	153304	WORD	n/a	wordpools/wordpool_EN.txt	ICE	8	2	[0, 0, 0]	n/a	0	1	0	n/a	n/a	0.0	0	0	0	FR2	2	R1177M
289.898	4.6	154447	STIM_ON	n/a	n/a	n/a	-999	2	[0, 0, 0]	n/a	1	1	4600	LG50	LG51	1000.0	50	230	300	FR2	2	R1177M
290.112	1.6	154554	WORD	n/a	wordpools/wordpool_EN.txt	WOLF	9	2	[0, 0, 0]	n/a	1	1	4600	LG50	LG51	1000.0	50	230	300	FR2	2	R1177M
292.564	1.6	155780	WORD	n/a	wordpools/wordpool_EN.txt	BOWL	10	2	[0, 0, 0]	n/a	1	1	4600	LG50	LG51	1000.0	50	230	300	FR2	2	R1177M
294.98	1.6	156988	WORD	n/a	wordpools/wordpool_EN.txt	BADGE	11	2	[0, 0, 0]	n/a	0	1	0	n/a	n/a	0.0	0	0	0	FR2	2	R1177M
297.515	1.6	158255	WORD	n/a	wordpools/wordpool_EN.txt	RUG	12	2	[0, 0, 0]	n/a	0	1	0	n/a	n/a	0.0	0	0	0	FR2	2	R1177M
299.131	0.0	159063	DISTRACT_START	n/a	n/a	n/a	-999	2	[0, 0, 0]	n/a	0	1	0	n/a	n/a	0.0	0	0	0	FR2	2	R1177M
299.131	0.016	159063	START	n/a	n/a	n/a	-999	2	[-999, -999, -999]	n/a	0	1	0	n/a	n/a	0.0	0	0	0	FR2	2	R1177M
299.147	5.751	159071	PROB	5.728	n/a	n/a	-999	2	[7, 1, 4]	11	0	1	0	n/a	n/a	0.0	0	0	0	FR2	2	R1177M
304.898	8.902	161946	PROB	8.872	n/a	n/a	-999	2	[8, 8, 7]	21	0	1	0	n/a	n/a	0.0	0	0	0	FR2	2	R1177M
313.8	7.058	166397	PROB	7.058	n/a	n/a	-999	2	[6, 2, 9]	17	0	1	0	n/a	n/a	0.0	0	0	0	FR2	2	R1177M
320.858	0.01	169926	STOP	n/a	n/a	n/a	-999	2	[-999, -999, -999]	n/a	0	1	0	n/a	n/a	0.0	0	0	0	FR2	2	R1177M
320.868	1.184	169931	DISTRACT_END	n/a	n/a	n/a	-999	2	[0, 0, 0]	n/a	0	1	0	n/a	n/a	0.0	0	0	0	FR2	2	R1177M
322.052	1.746	170523	REC_START	n/a	n/a	n/a	-999	2	[0, 0, 0]	n/a	0	1	0	n/a	n/a	0.0	0	0	0	FR2	2	R1177M
323.798	0.749	171396	REC_WORD	1.746	n/a	BADGE	-999	2	[0, 0, 0]	n/a	0	1	0	n/a	n/a	0.0	0	0	0	FR2	2	R1177M
324.547	27.518	171770	REC_WORD	2.495	n/a	PIPE	-999	2	[0, 0, 0]	n/a	0	1	0	n/a	n/a	0.0	0	0	0	FR2	2	R1177M
352.065	42.867	185528	REC_END	n/a	n/a	n/a	-999	2	[0, 0, 0]	n/a	0	1	0	n/a	n/a	0.0	0	0	0	FR2	2	R1177M
394.932	10.0	206960	COUNTDOWN_START	n/a	n/a	n/a	-999	3	[0, 0, 0]	n/a	0	1	0	n/a	n/a	0.0	0	0	0	FR2	2	R1177M
394.933	10.427	206960	TRIAL	n/a	n/a	n/a	-999	3	[0, 0, 0]	n/a	0	1	0	n/a	n/a	0.0	0	0	0	FR2	2	R1177M
405.36	0.009	212173	COUNTDOWN_END	n/a	n/a	n/a	-999	3	[0, 0, 0]	n/a	0	1	0	n/a	n/a	0.0	0	0	0	FR2	2	R1177M
405.369	1.6	212178	ORIENT	n/a	n/a	n/a	-999	3	[0, 0, 0]	n/a	0	1	0	n/a	n/a	0.0	0	0	0	FR2	2	R1177M
407.985	1.6	213486	WORD	n/a	wordpools/wordpool_EN.txt	GATE	1	3	[0, 0, 0]	n/a	0	1	0	n/a	n/a	0.0	0	0	0	FR2	2	R1177M
410.536	1.6	214761	WORD	n/a	wordpools/wordpool_EN.txt	HOLE	2	3	[0, 0, 0]	n/a	0	1	0	n/a	n/a	0.0	0	0	0	FR2	2	R1177M
412.789	4.6	215888	STIM_ON	n/a	n/a	n/a	-999	3	[0, 0, 0]	n/a	1	1	4600	LG50	LG51	1000.0	50	230	300	FR2	2	R1177M
413.002	1.6	215994	WORD	n/a	wordpools/wordpool_EN.txt	FLOOR	3	3	[0, 0, 0]	n/a	1	1	4600	LG50	LG51	1000.0	50	230	300	FR2	2	R1177M
415.387	1.6	217186	WORD	n/a	wordpools/wordpool_EN.txt	FLAME	4	3	[0, 0, 0]	n/a	1	1	4600	LG50	LG51	1000.0	50	230	300	FR2	2	R1177M
417.903	1.6	218444	WORD	n/a	wordpools/wordpool_EN.txt	MUD	5	3	[0, 0, 0]	n/a	0	1	0	n/a	n/a	0.0	0	0	0	FR2	2	R1177M
420.405	1.6	219695	WORD	n/a	wordpools/wordpool_EN.txt	JET	6	3	[0, 0, 0]	n/a	0	1	0	n/a	n/a	0.0	0	0	0	FR2	2	R1177M
422.731	4.6	220858	STIM_ON	n/a	n/a	n/a	-999	3	[0, 0, 0]	n/a	1	1	4600	LG50	LG51	1000.0	50	230	300	FR2	2	R1177M
422.938	1.6	220962	WORD	n/a	wordpools/wordpool_EN.txt	JEEP	7	3	[0, 0, 0]	n/a	1	1	4600	LG50	LG51	1000.0	50	230	300	FR2	2	R1177M
425.406	1.6	222196	WORD	n/a	wordpools/wordpool_EN.txt	PLATE	8	3	[0, 0, 0]	n/a	1	1	4600	LG50	LG51	1000.0	50	230	300	FR2	2	R1177M
427.839	1.6	223412	WORD	n/a	wordpools/wordpool_EN.txt	MAZE	9	3	[0, 0, 0]	n/a	0	1	0	n/a	n/a	0.0	0	0	0	FR2	2	R1177M
430.324	1.6	224654	WORD	n/a	wordpools/wordpool_EN.txt	HAWK	10	3	[0, 0, 0]	n/a	0	1	0	n/a	n/a	0.0	0	0	0	FR2	2	R1177M
432.651	4.6	225818	STIM_ON	n/a	n/a	n/a	-999	3	[0, 0, 0]	n/a	1	1	4600	LG50	LG51	1000.0	50	230	300	FR2	2	R1177M
432.856	1.6	225920	WORD	n/a	wordpools/wordpool_EN.txt	BEAK	11	3	[0, 0, 0]	n/a	1	1	4600	LG50	LG51	1000.0	50	230	300	FR2	2	R1177M
435.258	1.6	227121	WORD	n/a	wordpools/wordpool_EN.txt	SEED	12	3	[0, 0, 0]	n/a	1	1	4600	LG50	LG51	1000.0	50	230	300	FR2	2	R1177M
436.874	0.0	227929	DISTRACT_START	n/a	n/a	n/a	-999	3	[0, 0, 0]	n/a	1	1	4600	LG50	LG51	1000.0	50	230	300	FR2	2	R1177M
436.874	0.016	227929	START	n/a	n/a	n/a	-999	3	[-999, -999, -999]	n/a	0	1	0	n/a	n/a	0.0	0	0	0	FR2	2	R1177M
436.89	6.403	227937	PROB	6.37	n/a	n/a	-999	3	[2, 9, 9]	19	0	1	0	n/a	n/a	0.0	0	0	0	FR2	2	R1177M
443.293	5.75	231138	PROB	5.718	n/a	n/a	-999	3	[4, 4, 3]	11	0	1	0	n/a	n/a	0.0	0	0	0	FR2	2	R1177M
449.043	4.684	234013	PROB	4.648	n/a	n/a	-999	3	[1, 1, 5]	7	0	1	0	n/a	n/a	0.0	0	0	0	FR2	2	R1177M
453.727	8.988	236355	PROB	8.988	n/a	n/a	-999	3	[6, 7, 8]	18	0	1	0	n/a	n/a	0.0	0	0	0	FR2	2	R1177M
462.715	0.014	240849	STOP	n/a	n/a	n/a	-999	3	[-999, -999, -999]	n/a	0	1	0	n/a	n/a	0.0	0	0	0	FR2	2	R1177M
462.729	1.134	240856	DISTRACT_END	n/a	n/a	n/a	-999	3	[0, 0, 0]	n/a	0	1	0	n/a	n/a	0.0	0	0	0	FR2	2	R1177M
463.863	1.806	241422	REC_START	n/a	n/a	n/a	-999	3	[0, 0, 0]	n/a	0	1	0	n/a	n/a	0.0	0	0	0	FR2	2	R1177M
465.669	6.281	242325	REC_WORD	1.806	n/a	MAZE	-999	3	[0, 0, 0]	n/a	0	1	0	n/a	n/a	0.0	0	0	0	FR2	2	R1177M
471.95	2.277	245466	REC_WORD	8.087	n/a	MUD	-999	3	[0, 0, 0]	n/a	0	1	0	n/a	n/a	0.0	0	0	0	FR2	2	R1177M
474.227	19.645	246604	REC_WORD	10.364	n/a	GATE	-999	3	[0, 0, 0]	n/a	0	1	0	n/a	n/a	0.0	0	0	0	FR2	2	R1177M
493.872	10.948	256426	REC_END	n/a	n/a	n/a	-999	3	[0, 0, 0]	n/a	0	1	0	n/a	n/a	0.0	0	0	0	FR2	2	R1177M
504.82	0.0	261899	TRIAL	n/a	n/a	n/a	-999	4	[0, 0, 0]	n/a	0	0	0	n/a	n/a	0.0	0	0	0	FR2	2	R1177M
504.82	10.0	261899	COUNTDOWN_START	n/a	n/a	n/a	-999	4	[0, 0, 0]	n/a	0	0	0	n/a	n/a	0.0	0	0	0	FR2	2	R1177M
515.248	0.009	267113	COUNTDOWN_END	n/a	n/a	n/a	-999	4	[0, 0, 0]	n/a	0	0	0	n/a	n/a	0.0	0	0	0	FR2	2	R1177M
515.257	1.6	267117	ORIENT	n/a	n/a	n/a	-999	4	[0, 0, 0]	n/a	0	0	0	n/a	n/a	0.0	0	0	0	FR2	2	R1177M
517.773	1.6	268375	WORD	n/a	wordpools/wordpool_EN.txt	KEY	1	4	[0, 0, 0]	n/a	0	0	0	n/a	n/a	0.0	0	0	0	FR2	2	R1177M
520.241	1.6	269609	WORD	n/a	wordpools/wordpool_EN.txt	TIE	2	4	[0, 0, 0]	n/a	0	0	0	n/a	n/a	0.0	0	0	0	FR2	2	R1177M
522.774	1.6	270876	WORD	n/a	wordpools/wordpool_EN.txt	STAR	3	4	[0, 0, 0]	n/a	0	0	0	n/a	n/a	0.0	0	0	0	FR2	2	R1177M
525.175	1.6	272076	WORD	n/a	wordpools/wordpool_EN.txt	FILM	4	4	[0, 0, 0]	n/a	0	0	0	n/a	n/a	0.0	0	0	0	FR2	2	R1177M
527.725	1.6	273351	WORD	n/a	wordpools/wordpool_EN.txt	BUSH	5	4	[0, 0, 0]	n/a	0	0	0	n/a	n/a	0.0	0	0	0	FR2	2	R1177M
530.092	1.6	274534	WORD	n/a	wordpools/wordpool_EN.txt	GRASS	6	4	[0, 0, 0]	n/a	0	0	0	n/a	n/a	0.0	0	0	0	FR2	2	R1177M
532.642	1.6	275809	WORD	n/a	wordpools/wordpool_EN.txt	BLUSH	7	4	[0, 0, 0]	n/a	0	0	0	n/a	n/a	0.0	0	0	0	FR2	2	R1177M
535.177	1.6	277077	WORD	n/a	wordpools/wordpool_EN.txt	BIRD	8	4	[0, 0, 0]	n/a	0	0	0	n/a	n/a	0.0	0	0	0	FR2	2	R1177M
537.66	1.6	278318	WORD	n/a	wordpools/wordpool_EN.txt	DRESS	9	4	[0, 0, 0]	n/a	0	0	0	n/a	n/a	0.0	0	0	0	FR2	2	R1177M
540.261	1.6	279618	WORD	n/a	wordpools/wordpool_EN.txt	BOAT	10	4	[0, 0, 0]	n/a	0	0	0	n/a	n/a	0.0	0	0	0	FR2	2	R1177M
542.878	1.6	280927	WORD	n/a	wordpools/wordpool_EN.txt	FUR	11	4	[0, 0, 0]	n/a	0	0	0	n/a	n/a	0.0	0	0	0	FR2	2	R1177M
545.429	1.6	282202	WORD	n/a	wordpools/wordpool_EN.txt	FAN	12	4	[0, 0, 0]	n/a	0	0	0	n/a	n/a	0.0	0	0	0	FR2	2	R1177M
547.045	0.001	283010	DISTRACT_START	n/a	n/a	n/a	-999	4	[0, 0, 0]	n/a	0	0	0	n/a	n/a	0.0	0	0	0	FR2	2	R1177M
547.046	0.016	283011	START	n/a	n/a	n/a	-999	4	[-999, -999, -999]	n/a	0	0	0	n/a	n/a	0.0	0	0	0	FR2	2	R1177M
547.062	5.951	283019	PROB	5.925	n/a	n/a	-999	4	[6, 3, 5]	14	0	0	0	n/a	n/a	0.0	0	0	0	FR2	2	R1177M
553.013	3.934	285994	PROB	3.902	n/a	n/a	-999	4	[5, 2, 5]	12	0	0	0	n/a	n/a	0.0	0	0	0	FR2	2	R1177M
556.947	5.184	287961	PROB	5.16	n/a	n/a	-999	4	[4, 6, 7]	17	0	0	0	n/a	n/a	0.0	0	0	0	FR2	2	R1177M
562.131	6.032	290552	PROB	6.032	n/a	n/a	-999	4	[7, 1, 9]	17	0	0	0	n/a	n/a	0.0	0	0	0	FR2	2	R1177M
568.163	0.003	293568	STOP	n/a	n/a	n/a	-999	4	[-999, -999, -999]	n/a	0	0	0	n/a	n/a	0.0	0	0	0	FR2	2	R1177M
568.166	1.235	293570	DISTRACT_END	n/a	n/a	n/a	-999	4	[0, 0, 0]	n/a	0	0	0	n/a	n/a	0.0	0	0	0	FR2	2	R1177M
569.401	0.653	294187	REC_START	n/a	n/a	n/a	-999	4	[0, 0, 0]	n/a	0	0	0	n/a	n/a	0.0	0	0	0	FR2	2	R1177M
570.054	13.569	294514	REC_WORD	0.653	n/a	FUR	-999	4	[0, 0, 0]	n/a	0	0	0	n/a	n/a	0.0	0	0	0	FR2	2	R1177M
583.623	15.787	301298	REC_WORD_VV	14.222	n/a	<>	-999	4	[0, 0, 0]	n/a	0	0	0	n/a	n/a	0.0	0	0	0	FR2	2	R1177M
599.41	3.712	309190	REC_END	n/a	n/a	n/a	-999	4	[0, 0, 0]	n/a	0	0	0	n/a	n/a	0.0	0	0	0	FR2	2	R1177M
603.122	10.0	311046	COUNTDOWN_START	n/a	n/a	n/a	-999	5	[0, 0, 0]	n/a	0	1	0	n/a	n/a	0.0	0	0	0	FR2	2	R1177M
603.123	10.427	311047	TRIAL	n/a	n/a	n/a	-999	5	[0, 0, 0]	n/a	0	1	0	n/a	n/a	0.0	0	0	0	FR2	2	R1177M
613.55	0.009	316260	COUNTDOWN_END	n/a	n/a	n/a	-999	5	[0, 0, 0]	n/a	0	1	0	n/a	n/a	0.0	0	0	0	FR2	2	R1177M
613.559	1.6	316264	ORIENT	n/a	n/a	n/a	-999	5	[0, 0, 0]	n/a	0	1	0	n/a	n/a	0.0	0	0	0	FR2	2	R1177M
616.108	1.6	317539	WORD	n/a	wordpools/wordpool_EN.txt	FLEA	1	5	[0, 0, 0]	n/a	0	1	0	n/a	n/a	0.0	0	0	0	FR2	2	R1177M
618.576	1.6	318773	WORD	n/a	wordpools/wordpool_EN.txt	WEB	2	5	[0, 0, 0]	n/a	0	1	0	n/a	n/a	0.0	0	0	0	FR2	2	R1177M
620.987	4.6	319978	STIM_ON	n/a	n/a	n/a	-999	5	[0, 0, 0]	n/a	1	1	4600	LG50	LG51	1000.0	50	230	300	FR2	2	R1177M
621.194	1.6	320082	WORD	n/a	wordpools/wordpool_EN.txt	FORT	3	5	[0, 0, 0]	n/a	1	1	4600	LG50	LG51	1000.0	50	230	300	FR2	2	R1177M
623.693	1.6	321331	WORD	n/a	wordpools/wordpool_EN.txt	DOOR	4	5	[0, 0, 0]	n/a	1	1	4600	LG50	LG51	1000.0	50	230	300	FR2	2	R1177M
626.06	1.6	322514	WORD	n/a	wordpools/wordpool_EN.txt	TRUCK	5	5	[0, 0, 0]	n/a	0	1	0	n/a	n/a	0.0	0	0	0	FR2	2	R1177M
628.627	1.6	323798	WORD	n/a	wordpools/wordpool_EN.txt	PEAR	6	5	[0, 0, 0]	n/a	0	1	0	n/a	n/a	0.0	0	0	0	FR2	2	R1177M
630.956	4.6	324962	STIM_ON	n/a	n/a	n/a	-999	5	[0, 0, 0]	n/a	1	1	4600	LG50	LG51	1000.0	50	230	300	FR2	2	R1177M
631.162	1.6	325065	WORD	n/a	wordpools/wordpool_EN.txt	VEST	7	5	[0, 0, 0]	n/a	1	1	4600	LG50	LG51	1000.0	50	230	300	FR2	2	R1177M
633.612	1.6	326290	WORD	n/a	wordpools/wordpool_EN.txt	COW	8	5	[0, 0, 0]	n/a	1	1	4600	LG50	LG51	1000.0	50	230	300	FR2	2	R1177M
636.129	1.6	327548	WORD	n/a	wordpools/wordpool_EN.txt	CAGE	9	5	[0, 0, 0]	n/a	0	1	0	n/a	n/a	0.0	0	0	0	FR2	2	R1177M
638.729	1.6	328848	WORD	n/a	wordpools/wordpool_EN.txt	OWL	10	5	[0, 0, 0]	n/a	0	1	0	n/a	n/a	0.0	0	0	0	FR2	2	R1177M
640.9	4.6	329934	STIM_ON	n/a	n/a	n/a	-999	5	[0, 0, 0]	n/a	1	1	4600	LG50	LG51	1000.0	50	230	300	FR2	2	R1177M
641.113	1.6	330040	WORD	n/a	wordpools/wordpool_EN.txt	LAKE	11	5	[0, 0, 0]	n/a	1	1	4600	LG50	LG51	1000.0	50	230	300	FR2	2	R1177M
643.597	1.6	331282	WORD	n/a	wordpools/wordpool_EN.txt	PEA	12	5	[0, 0, 0]	n/a	1	1	4600	LG50	LG51	1000.0	50	230	300	FR2	2	R1177M
645.198	0.001	332083	DISTRACT_START	n/a	n/a	n/a	-999	5	[0, 0, 0]	n/a	1	1	4600	LG50	LG51	1000.0	50	230	300	FR2	2	R1177M
645.199	0.016	332083	START	n/a	n/a	n/a	-999	5	[-999, -999, -999]	n/a	0	1	0	n/a	n/a	0.0	0	0	0	FR2	2	R1177M
645.215	5.084	332091	PROB	5.053	n/a	n/a	-999	5	[2, 8, 8]	17	0	1	0	n/a	n/a	0.0	0	0	0	FR2	2	R1177M
650.299	4.667	334633	PROB	4.64	n/a	n/a	-999	5	[5, 7, 6]	17	0	1	0	n/a	n/a	0.0	0	0	0	FR2	2	R1177M
654.966	4.468	336966	PROB	4.438	n/a	n/a	-999	5	[8, 4, 8]	18	0	1	0	n/a	n/a	0.0	0	0	0	FR2	2	R1177M
659.434	4.35	339200	PROB	4.32	n/a	n/a	-999	5	[6, 7, 1]	13	0	1	0	n/a	n/a	0.0	0	0	0	FR2	2	R1177M
663.784	7.523	341375	PROB	7.523	n/a	n/a	-999	5	[8, 9, 8]	20	0	1	0	n/a	n/a	0.0	0	0	0	FR2	2	R1177M
671.307	0.013	345136	STOP	n/a	n/a	n/a	-999	5	[-999, -999, -999]	n/a	0	1	0	n/a	n/a	0.0	0	0	0	FR2	2	R1177M
671.32	1.201	345143	DISTRACT_END	n/a	n/a	n/a	-999	5	[0, 0, 0]	n/a	0	1	0	n/a	n/a	0.0	0	0	0	FR2	2	R1177M
672.521	1.856	345743	REC_START	n/a	n/a	n/a	-999	5	[0, 0, 0]	n/a	0	1	0	n/a	n/a	0.0	0	0	0	FR2	2	R1177M
674.377	1.485	346671	REC_WORD	1.856	n/a	LAKE	-999	5	[0, 0, 0]	n/a	0	1	0	n/a	n/a	0.0	0	0	0	FR2	2	R1177M
675.862	2.002	347413	REC_WORD	3.341	n/a	OWL	-999	5	[0, 0, 0]	n/a	0	1	0	n/a	n/a	0.0	0	0	0	FR2	2	R1177M
677.864	1.941	348414	REC_WORD	5.343	n/a	PEA	-999	5	[0, 0, 0]	n/a	0	1	0	n/a	n/a	0.0	0	0	0	FR2	2	R1177M
679.805	15.145	349385	REC_WORD	7.284	n/a	PEAR	-999	5	[0, 0, 0]	n/a	0	1	0	n/a	n/a	0.0	0	0	0	FR2	2	R1177M
694.95	7.585	356957	REC_WORD_VV	22.429	n/a	<>	-999	5	[0, 0, 0]	n/a	0	1	0	n/a	n/a	0.0	0	0	0	FR2	2	R1177M
702.535	15.593	360749	REC_END	n/a	n/a	n/a	-999	5	[0, 0, 0]	n/a	0	1	0	n/a	n/a	0.0	0	0	0	FR2	2	R1177M
718.128	0.0	368545	TRIAL	n/a	n/a	n/a	-999	6	[0, 0, 0]	n/a	0	0	0	n/a	n/a	0.0	0	0	0	FR2	2	R1177M
718.128	10.0	368545	COUNTDOWN_START	n/a	n/a	n/a	-999	6	[0, 0, 0]	n/a	0	0	0	n/a	n/a	0.0	0	0	0	FR2	2	R1177M
728.556	0.008	373758	COUNTDOWN_END	n/a	n/a	n/a	-999	6	[0, 0, 0]	n/a	0	0	0	n/a	n/a	0.0	0	0	0	FR2	2	R1177M
728.564	1.6	373762	ORIENT	n/a	n/a	n/a	-999	6	[0, 0, 0]	n/a	0	0	0	n/a	n/a	0.0	0	0	0	FR2	2	R1177M
731.198	1.6	375079	WORD	n/a	wordpools/wordpool_EN.txt	SINK	1	6	[0, 0, 0]	n/a	0	0	0	n/a	n/a	0.0	0	0	0	FR2	2	R1177M
733.814	1.6	376387	WORD	n/a	wordpools/wordpool_EN.txt	PEN	2	6	[0, 0, 0]	n/a	0	0	0	n/a	n/a	0.0	0	0	0	FR2	2	R1177M
736.349	1.6	377654	WORD	n/a	wordpools/wordpool_EN.txt	AXE	3	6	[0, 0, 0]	n/a	0	0	0	n/a	n/a	0.0	0	0	0	FR2	2	R1177M
738.849	1.6	378904	WORD	n/a	wordpools/wordpool_EN.txt	EEL	4	6	[0, 0, 0]	n/a	0	0	0	n/a	n/a	0.0	0	0	0	FR2	2	R1177M
741.233	1.6	380096	WORD	n/a	wordpools/wordpool_EN.txt	JAIL	5	6	[0, 0, 0]	n/a	0	0	0	n/a	n/a	0.0	0	0	0	FR2	2	R1177M
743.7	1.6	381330	WORD	n/a	wordpools/wordpool_EN.txt	CHAIR	6	6	[0, 0, 0]	n/a	0	0	0	n/a	n/a	0.0	0	0	0	FR2	2	R1177M
746.083	1.6	382521	WORD	n/a	wordpools/wordpool_EN.txt	HEART	7	6	[0, 0, 0]	n/a	0	0	0	n/a	n/a	0.0	0	0	0	FR2	2	R1177M
748.485	1.6	383722	WORD	n/a	wordpools/wordpool_EN.txt	BOOT	8	6	[0, 0, 0]	n/a	0	0	0	n/a	n/a	0.0	0	0	0	FR2	2	R1177M
751.051	1.6	385005	WORD	n/a	wordpools/wordpool_EN.txt	FORK	9	6	[0, 0, 0]	n/a	0	0	0	n/a	n/a	0.0	0	0	0	FR2	2	R1177M
753.436	1.6	386197	WORD	n/a	wordpools/wordpool_EN.txt	CHIEF	10	6	[0, 0, 0]	n/a	0	0	0	n/a	n/a	0.0	0	0	0	FR2	2	R1177M
755.969	1.6	387464	WORD	n/a	wordpools/wordpool_EN.txt	GUARD	11	6	[0, 0, 0]	n/a	0	0	0	n/a	n/a	0.0	0	0	0	FR2	2	R1177M
758.586	1.6	388772	WORD	n/a	wordpools/wordpool_EN.txt	VASE	12	6	[0, 0, 0]	n/a	0	0	0	n/a	n/a	0.0	0	0	0	FR2	2	R1177M
760.204	0.001	389581	DISTRACT_START	n/a	n/a	n/a	-999	6	[0, 0, 0]	n/a	0	0	0	n/a	n/a	0.0	0	0	0	FR2	2	R1177M
760.205	0.015	389581	START	n/a	n/a	n/a	-999	6	[-999, -999, -999]	n/a	0	0	0	n/a	n/a	0.0	0	0	0	FR2	2	R1177M
760.22	7.634	389589	PROB	7.614	n/a	n/a	-999	6	[3, 5, 9]	15	0	0	0	n/a	n/a	0.0	0	0	0	FR2	2	R1177M
767.854	6.101	393406	PROB	6.077	n/a	n/a	-999	6	[5, 2, 4]	10	0	0	0	n/a	n/a	0.0	0	0	0	FR2	2	R1177M
773.955	4.486	396456	PROB	4.465	n/a	n/a	-999	6	[4, 5, 1]	10	0	0	0	n/a	n/a	0.0	0	0	0	FR2	2	R1177M
778.441	6.289	398699	PROB	6.289	n/a	n/a	-999	6	[3, 9, 5]	16	0	0	0	n/a	n/a	0.0	0	0	0	FR2	2	R1177M
784.73	0.011	401843	STOP	n/a	n/a	n/a	-999	6	[-999, -999, -999]	n/a	0	0	0	n/a	n/a	0.0	0	0	0	FR2	2	R1177M
784.741	1.134	401848	DISTRACT_END	n/a	n/a	n/a	-999	6	[0, 0, 0]	n/a	0	0	0	n/a	n/a	0.0	0	0	0	FR2	2	R1177M
785.875	1.302	402415	REC_START	n/a	n/a	n/a	-999	6	[0, 0, 0]	n/a	0	0	0	n/a	n/a	0.0	0	0	0	FR2	2	R1177M
787.177	1.197	403066	REC_WORD	1.302	n/a	GUARD	-999	6	[0, 0, 0]	n/a	0	0	0	n/a	n/a	0.0	0	0	0	FR2	2	R1177M
788.374	0.918	403665	REC_WORD	2.499	n/a	AXE	-999	6	[0, 0, 0]	n/a	0	0	0	n/a	n/a	0.0	0	0	0	FR2	2	R1177M
789.292	5.745	404124	REC_WORD	3.417	n/a	EEL	-999	6	[0, 0, 0]	n/a	0	0	0	n/a	n/a	0.0	0	0	0	FR2	2	R1177M
795.037	6.291	406996	REC_WORD	9.162	n/a	TIN	-999	6	[0, 0, 0]	n/a	0	0	0	n/a	n/a	0.0	0	0	0	FR2	2	R1177M
801.328	14.556	410141	REC_WORD	15.453	n/a	SINK	-999	6	[0, 0, 0]	n/a	0	0	0	n/a	n/a	0.0	0	0	0	FR2	2	R1177M
815.884	235.409	417419	REC_END	n/a	n/a	n/a	-999	6	[0, 0, 0]	n/a	0	0	0	n/a	n/a	0.0	0	0	0	FR2	2	R1177M
1051.293	0.0	535114	TRIAL	n/a	n/a	n/a	-999	7	[0, 0, 0]	n/a	0	1	0	n/a	n/a	0.0	0	0	0	FR2	2	R1177M
1051.293	10.0	535114	COUNTDOWN_START	n/a	n/a	n/a	-999	7	[0, 0, 0]	n/a	0	1	0	n/a	n/a	0.0	0	0	0	FR2	2	R1177M
1061.721	0.007	540327	COUNTDOWN_END	n/a	n/a	n/a	-999	7	[0, 0, 0]	n/a	0	1	0	n/a	n/a	0.0	0	0	0	FR2	2	R1177M
1061.728	1.6	540331	ORIENT	n/a	n/a	n/a	-999	7	[0, 0, 0]	n/a	0	1	0	n/a	n/a	0.0	0	0	0	FR2	2	R1177M
1064.044	4.6	541489	STIM_ON	n/a	n/a	n/a	-999	7	[0, 0, 0]	n/a	1	1	4600	LG50	LG51	1000.0	50	230	300	FR2	2	R1177M
1064.245	1.6	541589	WORD	n/a	wordpools/wordpool_EN.txt	CALF	1	7	[0, 0, 0]	n/a	1	1	4600	LG50	LG51	1000.0	50	230	300	FR2	2	R1177M
1066.762	1.6	542848	WORD	n/a	wordpools/wordpool_EN.txt	STEAK	2	7	[0, 0, 0]	n/a	1	1	4600	LG50	LG51	1000.0	50	230	300	FR2	2	R1177M
1069.347	1.6	544140	WORD	n/a	wordpools/wordpool_EN.txt	SEAL	3	7	[0, 0, 0]	n/a	0	1	0	n/a	n/a	0.0	0	0	0	FR2	2	R1177M
1071.896	1.6	545414	WORD	n/a	wordpools/wordpool_EN.txt	SOCK	4	7	[0, 0, 0]	n/a	0	1	0	n/a	n/a	0.0	0	0	0	FR2	2	R1177M
1074.198	4.6	546565	STIM_ON	n/a	n/a	n/a	-999	7	[0, 0, 0]	n/a	1	1	4600	LG50	LG51	1000.0	50	230	300	FR2	2	R1177M
1074.414	1.6	546673	WORD	n/a	wordpools/wordpool_EN.txt	BAND	5	7	[0, 0, 0]	n/a	1	1	4600	LG50	LG51	1000.0	50	230	300	FR2	2	R1177M
1076.981	1.6	547957	WORD	n/a	wordpools/wordpool_EN.txt	YARD	6	7	[0, 0, 0]	n/a	1	1	4600	LG50	LG51	1000.0	50	230	300	FR2	2	R1177M
1079.565	1.6	549249	WORD	n/a	wordpools/wordpool_EN.txt	HOOF	7	7	[0, 0, 0]	n/a	0	1	0	n/a	n/a	0.0	0	0	0	FR2	2	R1177M
1082.031	1.6	550481	WORD	n/a	wordpools/wordpool_EN.txt	MOUSE	8	7	[0, 0, 0]	n/a	0	1	0	n/a	n/a	0.0	0	0	0	FR2	2	R1177M
1084.417	4.6	551674	STIM_ON	n/a	n/a	n/a	-999	7	[0, 0, 0]	n/a	1	1	4600	LG50	LG51	1000.0	50	230	300	FR2	2	R1177M
1084.632	1.6	551782	WORD	n/a	wordpools/wordpool_EN.txt	CAT	9	7	[0, 0, 0]	n/a	1	1	4600	LG50	LG51	1000.0	50	230	300	FR2	2	R1177M
1087.217	1.6	553074	WORD	n/a	wordpools/wordpool_EN.txt	VAN	10	7	[0, 0, 0]	n/a	1	1	4600	LG50	LG51	1000.0	50	230	300	FR2	2	R1177M
1089.816	1.6	554374	WORD	n/a	wordpools/wordpool_EN.txt	FENCE	11	7	[0, 0, 0]	n/a	0	1	0	n/a	n/a	0.0	0	0	0	FR2	2	R1177M
1092.368	1.6	555649	WORD	n/a	wordpools/wordpool_EN.txt	SKI	12	7	[0, 0, 0]	n/a	0	1	0	n/a	n/a	0.0	0	0	0	FR2	2	R1177M
1093.984	0.001	556457	DISTRACT_START	n/a	n/a	n/a	-999	7	[0, 0, 0]	n/a	0	1	0	n/a	n/a	0.0	0	0	0	FR2	2	R1177M
1093.985	0.016	556458	START	n/a	n/a	n/a	-999	7	[-999, -999, -999]	n/a	0	1	0	n/a	n/a	0.0	0	0	0	FR2	2	R1177M
1094.001	7.018	556466	PROB	6.986	n/a	n/a	-999	7	[3, 1, 1]	5	0	1	0	n/a	n/a	0.0	0	0	0	FR2	2	R1177M
1101.019	11.002	559975	PROB	10.976	n/a	n/a	-999	7	[6, 6, 8]	18	0	1	0	n/a	n/a	0.0	0	0	0	FR2	2	R1177M
1112.021	7.142	565475	PROB	7.142	n/a	n/a	-999	7	[7, 7, 3]	16	0	1	0	n/a	n/a	0.0	0	0	0	FR2	2	R1177M
1119.163	0.01	569046	STOP	n/a	n/a	n/a	-999	7	[-999, -999, -999]	n/a	0	1	0	n/a	n/a	0.0	0	0	0	FR2	2	R1177M
1119.173	1.134	569051	DISTRACT_END	n/a	n/a	n/a	-999	7	[0, 0, 0]	n/a	0	1	0	n/a	n/a	0.0	0	0	0	FR2	2	R1177M
1120.307	0.984	569618	REC_START	n/a	n/a	n/a	-999	7	[0, 0, 0]	n/a	0	1	0	n/a	n/a	0.0	0	0	0	FR2	2	R1177M
1121.291	0.964	570110	REC_WORD	0.984	n/a	MOUSE	-999	7	[0, 0, 0]	n/a	0	1	0	n/a	n/a	0.0	0	0	0	FR2	2	R1177M
1122.255	1.968	570592	REC_WORD	1.948	n/a	CAT	-999	7	[0, 0, 0]	n/a	0	1	0	n/a	n/a	0.0	0	0	0	FR2	2	R1177M
1124.223	26.094	571576	REC_WORD	3.916	n/a	FENCE	-999	7	[0, 0, 0]	n/a	0	1	0	n/a	n/a	0.0	0	0	0	FR2	2	R1177M
1150.317	13.031	584622	REC_END	n/a	n/a	n/a	-999	7	[0, 0, 0]	n/a	0	1	0	n/a	n/a	0.0	0	0	0	FR2	2	R1177M
1163.348	0.0	591137	TRIAL	n/a	n/a	n/a	-999	8	[0, 0, 0]	n/a	0	1	0	n/a	n/a	0.0	0	0	0	FR2	2	R1177M
1163.348	10.0	591137	COUNTDOWN_START	n/a	n/a	n/a	-999	8	[0, 0, 0]	n/a	0	1	0	n/a	n/a	0.0	0	0	0	FR2	2	R1177M
1173.776	0.007	596350	COUNTDOWN_END	n/a	n/a	n/a	-999	8	[0, 0, 0]	n/a	0	1	0	n/a	n/a	0.0	0	0	0	FR2	2	R1177M
1173.783	1.6	596354	ORIENT	n/a	n/a	n/a	-999	8	[0, 0, 0]	n/a	0	1	0	n/a	n/a	0.0	0	0	0	FR2	2	R1177M
1176.15	1.6	597537	WORD	n/a	wordpools/wordpool_EN.txt	STOOL	1	8	[0, 0, 0]	n/a	0	1	0	n/a	n/a	0.0	0	0	0	FR2	2	R1177M
1178.7	1.6	598812	WORD	n/a	wordpools/wordpool_EN.txt	PURSE	2	8	[0, 0, 0]	n/a	0	1	0	n/a	n/a	0.0	0	0	0	FR2	2	R1177M
1181.029	4.6	599976	STIM_ON	n/a	n/a	n/a	-999	8	[0, 0, 0]	n/a	1	1	4600	LG50	LG51	1000.0	50	230	300	FR2	2	R1177M
1181.235	1.6	600079	WORD	n/a	wordpools/wordpool_EN.txt	ELF	3	8	[0, 0, 0]	n/a	1	1	4600	LG50	LG51	1000.0	50	230	300	FR2	2	R1177M
1183.751	1.6	601337	WORD	n/a	wordpools/wordpool_EN.txt	CLOTH	4	8	[0, 0, 0]	n/a	1	1	4600	LG50	LG51	1000.0	50	230	300	FR2	2	R1177M
1186.203	1.6	602563	WORD	n/a	wordpools/wordpool_EN.txt	BAG	5	8	[0, 0, 0]	n/a	0	1	0	n/a	n/a	0.0	0	0	0	FR2	2	R1177M
1188.785	1.6	603854	WORD	n/a	wordpools/wordpool_EN.txt	ROOF	6	8	[0, 0, 0]	n/a	0	1	0	n/a	n/a	0.0	0	0	0	FR2	2	R1177M
1191.148	4.6	605035	STIM_ON	n/a	n/a	n/a	-999	8	[0, 0, 0]	n/a	1	1	4600	LG50	LG51	1000.0	50	230	300	FR2	2	R1177M
1191.354	1.6	605138	WORD	n/a	wordpools/wordpool_EN.txt	LOCK	7	8	[0, 0, 0]	n/a	1	1	4600	LG50	LG51	1000.0	50	230	300	FR2	2	R1177M
1193.903	1.6	606413	WORD	n/a	wordpools/wordpool_EN.txt	VINE	8	8	[0, 0, 0]	n/a	1	1	4600	LG50	LG51	1000.0	50	230	300	FR2	2	R1177M
1196.355	1.6	607639	WORD	n/a	wordpools/wordpool_EN.txt	CORD	9	8	[0, 0, 0]	n/a	0	1	0	n/a	n/a	0.0	0	0	0	FR2	2	R1177M
1198.854	1.6	608888	WORD	n/a	wordpools/wordpool_EN.txt	SHIRT	10	8	[0, 0, 0]	n/a	0	1	0	n/a	n/a	0.0	0	0	0	FR2	2	R1177M
1201.111	4.6	610017	STIM_ON	n/a	n/a	n/a	-999	8	[0, 0, 0]	n/a	1	1	4600	LG50	LG51	1000.0	50	230	300	FR2	2	R1177M
1201.322	1.6	610122	WORD	n/a	wordpools/wordpool_EN.txt	STOVE	11	8	[0, 0, 0]	n/a	1	1	4600	LG50	LG51	1000.0	50	230	300	FR2	2	R1177M
1203.922	1.6	611422	WORD	n/a	wordpools/wordpool_EN.txt	MUG	12	8	[0, 0, 0]	n/a	1	1	4600	LG50	LG51	1000.0	50	230	300	FR2	2	R1177M
1205.523	0.0	612222	DISTRACT_START	n/a	n/a	n/a	-999	8	[0, 0, 0]	n/a	1	1	4600	LG50	LG51	1000.0	50	230	300	FR2	2	R1177M
1205.523	0.017	612222	START	n/a	n/a	n/a	-999	8	[-999, -999, -999]	n/a	0	1	0	n/a	n/a	0.0	0	0	0	FR2	2	R1177M
1205.54	3.967	612231	PROB	3.944	n/a	n/a	-999	8	[9, 1, 1]	11	0	1	0	n/a	n/a	0.0	0	0	0	FR2	2	R1177M
1209.507	7.634	614214	PROB	7.6	n/a	n/a	-999	8	[4, 4, 2]	9	0	1	0	n/a	n/a	0.0	0	0	0	FR2	2	R1177M
1217.141	6.202	618031	PROB	6.166	n/a	n/a	-999	8	[1, 5, 2]	8	0	1	0	n/a	n/a	0.0	0	0	0	FR2	2	R1177M
1223.343	6.252	621132	PROB	6.252	n/a	n/a	-999	8	[1, 9, 6]	16	0	1	0	n/a	n/a	0.0	0	0	0	FR2	2	R1177M
1229.595	0.015	624257	STOP	n/a	n/a	n/a	-999	8	[-999, -999, -999]	n/a	0	1	0	n/a	n/a	0.0	0	0	0	FR2	2	R1177M
1229.61	1.067	624265	DISTRACT_END	n/a	n/a	n/a	-999	8	[0, 0, 0]	n/a	0	1	0	n/a	n/a	0.0	0	0	0	FR2	2	R1177M
1230.677	0.762	624798	REC_START	n/a	n/a	n/a	-999	8	[0, 0, 0]	n/a	0	1	0	n/a	n/a	0.0	0	0	0	FR2	2	R1177M
1231.439	0.868	625179	REC_WORD	0.762	n/a	STOOL	-999	8	[0, 0, 0]	n/a	0	1	0	n/a	n/a	0.0	0	0	0	FR2	2	R1177M
1232.307	27.636	625613	REC_WORD	1.63	n/a	MUG	-999	8	[0, 0, 0]	n/a	0	1	0	n/a	n/a	0.0	0	0	0	FR2	2	R1177M
1259.943	0.749	639430	REC_WORD	29.266	n/a	STOVE	-999	8	[0, 0, 0]	n/a	0	1	0	n/a	n/a	0.0	0	0	0	FR2	2	R1177M
1260.692	17.911	639805	REC_END	n/a	n/a	n/a	-999	8	[0, 0, 0]	n/a	0	1	0	n/a	n/a	0.0	0	0	0	FR2	2	R1177M
1278.603	10.0	648759	COUNTDOWN_START	n/a	n/a	n/a	-999	9	[0, 0, 0]	n/a	0	1	0	n/a	n/a	0.0	0	0	0	FR2	2	R1177M
1278.603	10.428	648759	TRIAL	n/a	n/a	n/a	-999	9	[0, 0, 0]	n/a	0	1	0	n/a	n/a	0.0	0	0	0	FR2	2	R1177M
1289.031	0.007	653973	COUNTDOWN_END	n/a	n/a	n/a	-999	9	[0, 0, 0]	n/a	0	1	0	n/a	n/a	0.0	0	0	0	FR2	2	R1177M
1289.038	1.6	653977	ORIENT	n/a	n/a	n/a	-999	9	[0, 0, 0]	n/a	0	1	0	n/a	n/a	0.0	0	0	0	FR2	2	R1177M
1291.655	1.6	655285	WORD	n/a	wordpools/wordpool_EN.txt	ROSE	1	9	[0, 0, 0]	n/a	0	1	0	n/a	n/a	0.0	0	0	0	FR2	2	R1177M
1294.039	1.6	656477	WORD	n/a	wordpools/wordpool_EN.txt	PANTS	2	9	[0, 0, 0]	n/a	0	1	0	n/a	n/a	0.0	0	0	0	FR2	2	R1177M
1296.418	4.6	657666	STIM_ON	n/a	n/a	n/a	-999	9	[0, 0, 0]	n/a	1	1	4600	LG50	LG51	1000.0	50	230	300	FR2	2	R1177M
1296.623	1.6	657769	WORD	n/a	wordpools/wordpool_EN.txt	SMILE	3	9	[0, 0, 0]	n/a	1	1	4600	LG50	LG51	1000.0	50	230	300	FR2	2	R1177M
1298.99	1.6	658952	WORD	n/a	wordpools/wordpool_EN.txt	DITCH	4	9	[0, 0, 0]	n/a	1	1	4600	LG50	LG51	1000.0	50	230	300	FR2	2	R1177M
1301.408	1.6	660161	WORD	n/a	wordpools/wordpool_EN.txt	FLAG	5	9	[0, 0, 0]	n/a	0	1	0	n/a	n/a	0.0	0	0	0	FR2	2	R1177M
1303.841	1.6	661377	WORD	n/a	wordpools/wordpool_EN.txt	STICK	6	9	[0, 0, 0]	n/a	0	1	0	n/a	n/a	0.0	0	0	0	FR2	2	R1177M
1306.079	4.6	662496	STIM_ON	n/a	n/a	n/a	-999	9	[0, 0, 0]	n/a	1	1	4600	LG50	LG51	1000.0	50	230	300	FR2	2	R1177M
1306.292	1.6	662603	WORD	n/a	wordpools/wordpool_EN.txt	SQUARE	7	9	[0, 0, 0]	n/a	1	1	4600	LG50	LG51	1000.0	50	230	300	FR2	2	R1177M
1308.809	1.6	663861	WORD	n/a	wordpools/wordpool_EN.txt	MOOSE	8	9	[0, 0, 0]	n/a	1	1	4600	LG50	LG51	1000.0	50	230	300	FR2	2	R1177M
1311.427	1.6	665170	WORD	n/a	wordpools/wordpool_EN.txt	CLIFF	9	9	[0, 0, 0]	n/a	0	1	0	n/a	n/a	0.0	0	0	0	FR2	2	R1177M
1313.943	1.6	666428	WORD	n/a	wordpools/wordpool_EN.txt	NET	10	9	[0, 0, 0]	n/a	0	1	0	n/a	n/a	0.0	0	0	0	FR2	2	R1177M
1316.13	4.6	667521	STIM_ON	n/a	n/a	n/a	-999	9	[0, 0, 0]	n/a	1	1	4600	LG50	LG51	1000.0	50	230	300	FR2	2	R1177M
1316.344	1.6	667628	WORD	n/a	wordpools/wordpool_EN.txt	MAP	11	9	[0, 0, 0]	n/a	1	1	4600	LG50	LG51	1000.0	50	230	300	FR2	2	R1177M
1318.777	1.6	668845	WORD	n/a	wordpools/wordpool_EN.txt	LAMP	12	9	[0, 0, 0]	n/a	1	1	4600	LG50	LG51	1000.0	50	230	300	FR2	2	R1177M
1320.395	0.001	669654	DISTRACT_START	n/a	n/a	n/a	-999	9	[0, 0, 0]	n/a	1	1	4600	LG50	LG51	1000.0	50	230	300	FR2	2	R1177M
1320.396	0.016	669654	START	n/a	n/a	n/a	-999	9	[-999, -999, -999]	n/a	0	1	0	n/a	n/a	0.0	0	0	0	FR2	2	R1177M
1320.412	9.351	669662	PROB	9.326	n/a	n/a	-999	9	[7, 9, 6]	19	0	1	0	n/a	n/a	0.0	0	0	0	FR2	2	R1177M
1329.763	7.334	674337	PROB	7.304	n/a	n/a	-999	9	[5, 2, 2]	14	0	1	0	n/a	n/a	0.0	0	0	0	FR2	2	R1177M
1337.097	7.849	678004	PROB	7.849	n/a	n/a	-999	9	[4, 9, 9]	18	0	1	0	n/a	n/a	0.0	0	0	0	FR2	2	R1177M
1344.946	0.02	681928	STOP	n/a	n/a	n/a	-999	9	[-999, -999, -999]	n/a	0	1	0	n/a	n/a	0.0	0	0	0	FR2	2	R1177M
1344.966	1.167	681938	DISTRACT_END	n/a	n/a	n/a	-999	9	[0, 0, 0]	n/a	0	1	0	n/a	n/a	0.0	0	0	0	FR2	2	R1177M
1346.133	30.012	682522	REC_START	n/a	n/a	n/a	-999	9	[0, 0, 0]	n/a	0	1	0	n/a	n/a	0.0	0	0	0	FR2	2	R1177M
1376.145	278.947	697526	REC_END	n/a	n/a	n/a	-999	9	[0, 0, 0]	n/a	0	1	0	n/a	n/a	0.0	0	0	0	FR2	2	R1177M
1655.092	0.0	836989	TRIAL	n/a	n/a	n/a	-999	10	[0, 0, 0]	n/a	0	1	0	n/a	n/a	0.0	0	0	0	FR2	2	R1177M
1655.092	10.0	836989	COUNTDOWN_START	n/a	n/a	n/a	-999	10	[0, 0, 0]	n/a	0	1	0	n/a	n/a	0.0	0	0	0	FR2	2	R1177M
1665.52	0.008	842202	COUNTDOWN_END	n/a	n/a	n/a	-999	10	[0, 0, 0]	n/a	0	1	0	n/a	n/a	0.0	0	0	0	FR2	2	R1177M
1665.528	1.6	842206	ORIENT	n/a	n/a	n/a	-999	10	[0, 0, 0]	n/a	0	1	0	n/a	n/a	0.0	0	0	0	FR2	2	R1177M
1667.785	4.6	843335	STIM_ON	n/a	n/a	n/a	-999	10	[0, 0, 0]	n/a	1	1	4600	LG50	LG51	1000.0	50	230	300	FR2	2	R1177M
1667.995	1.6	843440	WORD	n/a	wordpools/wordpool_EN.txt	MAT	1	10	[0, 0, 0]	n/a	1	1	4600	LG50	LG51	1000.0	50	230	300	FR2	2	R1177M
1670.612	1.6	844748	WORD	n/a	wordpools/wordpool_EN.txt	HOSE	2	10	[0, 0, 0]	n/a	1	1	4600	LG50	LG51	1000.0	50	230	300	FR2	2	R1177M
1673.129	1.6	846006	WORD	n/a	wordpools/wordpool_EN.txt	LEAF	3	10	[0, 0, 0]	n/a	0	1	0	n/a	n/a	0.0	0	0	0	FR2	2	R1177M
1675.663	1.6	847273	WORD	n/a	wordpools/wordpool_EN.txt	SHARK	4	10	[0, 0, 0]	n/a	0	1	0	n/a	n/a	0.0	0	0	0	FR2	2	R1177M
1678.039	4.6	848461	STIM_ON	n/a	n/a	n/a	-999	10	[0, 0, 0]	n/a	1	1	4600	LG50	LG51	1000.0	50	230	300	FR2	2	R1177M
1678.248	1.6	848566	WORD	n/a	wordpools/wordpool_EN.txt	MILK	5	10	[0, 0, 0]	n/a	1	1	4600	LG50	LG51	1000.0	50	230	300	FR2	2	R1177M
1680.697	1.6	849790	WORD	n/a	wordpools/wordpool_EN.txt	BALL	6	10	[0, 0, 0]	n/a	1	1	4600	LG50	LG51	1000.0	50	230	300	FR2	2	R1177M
1683.148	1.6	851016	WORD	n/a	wordpools/wordpool_EN.txt	ARM	7	10	[0, 0, 0]	n/a	0	1	0	n/a	n/a	0.0	0	0	0	FR2	2	R1177M
1685.698	1.6	852290	WORD	n/a	wordpools/wordpool_EN.txt	STORE	8	10	[0, 0, 0]	n/a	0	1	0	n/a	n/a	0.0	0	0	0	FR2	2	R1177M
1688.019	4.6	853451	STIM_ON	n/a	n/a	n/a	-999	10	[0, 0, 0]	n/a	1	1	4600	LG50	LG51	1000.0	50	230	300	FR2	2	R1177M
1688.233	1.6	853558	WORD	n/a	wordpools/wordpool_EN.txt	GOLD	9	10	[0, 0, 0]	n/a	1	1	4600	LG50	LG51	1000.0	50	230	300	FR2	2	R1177M
1690.682	1.6	854782	WORD	n/a	wordpools/wordpool_EN.txt	CAPE	10	10	[0, 0, 0]	n/a	1	1	4600	LG50	LG51	1000.0	50	230	300	FR2	2	R1177M
1693.099	1.6	855991	WORD	n/a	wordpools/wordpool_EN.txt	STORM	11	10	[0, 0, 0]	n/a	0	1	0	n/a	n/a	0.0	0	0	0	FR2	2	R1177M
1695.484	1.6	857183	WORD	n/a	wordpools/wordpool_EN.txt	WALL	12	10	[0, 0, 0]	n/a	0	1	0	n/a	n/a	0.0	0	0	0	FR2	2	R1177M
1697.1	0.001	857991	DISTRACT_START	n/a	n/a	n/a	-999	10	[0, 0, 0]	n/a	0	1	0	n/a	n/a	0.0	0	0	0	FR2	2	R1177M
1697.101	0.016	857991	START	n/a	n/a	n/a	-999	10	[-999, -999, -999]	n/a	0	1	0	n/a	n/a	0.0	0	0	0	FR2	2	R1177M
1697.117	8.668	857999	PROB	8.645	n/a	n/a	-999	10	[4, 7, 3]	12	0	1	0	n/a	n/a	0.0	0	0	0	FR2	2	R1177M
1705.785	5.318	862333	PROB	5.298	n/a	n/a	-999	10	[3, 1, 4]	7	0	1	0	n/a	n/a	0.0	0	0	0	FR2	2	R1177M
1711.103	6.196	864992	PROB	6.196	n/a	n/a	-999	10	[8, 1, 2]	10	0	1	0	n/a	n/a	0.0	0	0	0	FR2	2	R1177M
1717.299	0.006	868090	STOP	n/a	n/a	n/a	-999	10	[-999, -999, -999]	n/a	0	1	0	n/a	n/a	0.0	0	0	0	FR2	2	R1177M
1717.305	1.201	868093	DISTRACT_END	n/a	n/a	n/a	-999	10	[0, 0, 0]	n/a	0	1	0	n/a	n/a	0.0	0	0	0	FR2	2	R1177M
1718.506	4.068	868693	REC_START	n/a	n/a	n/a	-999	10	[0, 0, 0]	n/a	0	1	0	n/a	n/a	0.0	0	0	0	FR2	2	R1177M
1722.574	17.384	870727	REC_WORD	4.068	n/a	WALL	-999	10	[0, 0, 0]	n/a	0	1	0	n/a	n/a	0.0	0	0	0	FR2	2	R1177M
1739.958	8.559	879418	REC_WORD	21.452	n/a	MAT	-999	10	[0, 0, 0]	n/a	0	1	0	n/a	n/a	0.0	0	0	0	FR2	2	R1177M
1748.517	5.561	883697	REC_END	n/a	n/a	n/a	-999	10	[0, 0, 0]	n/a	0	1	0	n/a	n/a	0.0	0	0	0	FR2	2	R1177M
1754.078	0.0	886478	TRIAL	n/a	n/a	n/a	-999	11	[0, 0, 0]	n/a	0	1	0	n/a	n/a	0.0	0	0	0	FR2	2	R1177M
1754.078	10.0	886478	COUNTDOWN_START	n/a	n/a	n/a	-999	11	[0, 0, 0]	n/a	0	1	0	n/a	n/a	0.0	0	0	0	FR2	2	R1177M
1764.506	0.008	891691	COUNTDOWN_END	n/a	n/a	n/a	-999	11	[0, 0, 0]	n/a	0	1	0	n/a	n/a	0.0	0	0	0	FR2	2	R1177M
1764.514	1.6	891695	ORIENT	n/a	n/a	n/a	-999	11	[0, 0, 0]	n/a	0	1	0	n/a	n/a	0.0	0	0	0	FR2	2	R1177M
1766.997	1.6	892937	WORD	n/a	wordpools/wordpool_EN.txt	HOUSE	1	11	[0, 0, 0]	n/a	0	1	0	n/a	n/a	0.0	0	0	0	FR2	2	R1177M
1769.598	1.6	894237	WORD	n/a	wordpools/wordpool_EN.txt	SOUP	2	11	[0, 0, 0]	n/a	0	1	0	n/a	n/a	0.0	0	0	0	FR2	2	R1177M
1771.772	4.6	895324	STIM_ON	n/a	n/a	n/a	-999	11	[0, 0, 0]	n/a	1	1	4600	LG50	LG51	1000.0	50	230	300	FR2	2	R1177M
1771.981	1.6	895428	WORD	n/a	wordpools/wordpool_EN.txt	PIN	3	11	[0, 0, 0]	n/a	1	1	4600	LG50	LG51	1000.0	50	230	300	FR2	2	R1177M
1774.5	1.6	896688	WORD	n/a	wordpools/wordpool_EN.txt	WHALE	4	11	[0, 0, 0]	n/a	1	1	4600	LG50	LG51	1000.0	50	230	300	FR2	2	R1177M
1777.016	1.6	897946	WORD	n/a	wordpools/wordpool_EN.txt	FOOT	5	11	[0, 0, 0]	n/a	0	1	0	n/a	n/a	0.0	0	0	0	FR2	2	R1177M
1779.599	1.6	899237	WORD	n/a	wordpools/wordpool_EN.txt	BARN	6	11	[0, 0, 0]	n/a	0	1	0	n/a	n/a	0.0	0	0	0	FR2	2	R1177M
1781.882	4.6	900379	STIM_ON	n/a	n/a	n/a	-999	11	[0, 0, 0]	n/a	1	1	4600	LG50	LG51	1000.0	50	230	300	FR2	2	R1177M
1782.083	1.6	900479	WORD	n/a	wordpools/wordpool_EN.txt	TENT	7	11	[0, 0, 0]	n/a	1	1	4600	LG50	LG51	1000.0	50	230	300	FR2	2	R1177M
1784.633	1.6	901754	WORD	n/a	wordpools/wordpool_EN.txt	PHONE	8	11	[0, 0, 0]	n/a	1	1	4600	LG50	LG51	1000.0	50	230	300	FR2	2	R1177M
1787.051	1.6	902963	WORD	n/a	wordpools/wordpool_EN.txt	SEAT	9	11	[0, 0, 0]	n/a	0	1	0	n/a	n/a	0.0	0	0	0	FR2	2	R1177M
1789.668	1.6	904271	WORD	n/a	wordpools/wordpool_EN.txt	BAT	10	11	[0, 0, 0]	n/a	0	1	0	n/a	n/a	0.0	0	0	0	FR2	2	R1177M
1791.84	4.6	905357	STIM_ON	n/a	n/a	n/a	-999	11	[0, 0, 0]	n/a	1	1	4600	LG50	LG51	1000.0	50	230	300	FR2	2	R1177M
1792.052	1.6	905463	WORD	n/a	wordpools/wordpool_EN.txt	STRAW	11	11	[0, 0, 0]	n/a	1	1	4600	LG50	LG51	1000.0	50	230	300	FR2	2	R1177M
1794.47	1.6	906672	WORD	n/a	wordpools/wordpool_EN.txt	LEG	12	11	[0, 0, 0]	n/a	1	1	4600	LG50	LG51	1000.0	50	230	300	FR2	2	R1177M
1796.086	0.001	907480	DISTRACT_START	n/a	n/a	n/a	-999	11	[0, 0, 0]	n/a	1	1	4600	LG50	LG51	1000.0	50	230	300	FR2	2	R1177M
1796.087	0.016	907480	START	n/a	n/a	n/a	-999	11	[-999, -999, -999]	n/a	0	1	0	n/a	n/a	0.0	0	0	0	FR2	2	R1177M
1796.103	6.168	907488	PROB	6.141	n/a	n/a	-999	11	[2, 8, 8]	18	0	1	0	n/a	n/a	0.0	0	0	0	FR2	2	R1177M
1802.271	10.286	910572	PROB	10.26	n/a	n/a	-999	11	[8, 7, 9]	19	0	1	0	n/a	n/a	0.0	0	0	0	FR2	2	R1177M
1812.557	5.325	915715	PROB	5.325	n/a	n/a	-999	11	[9, 7, 8]	20	0	1	0	n/a	n/a	0.0	0	0	0	FR2	2	R1177M
1817.882	0.008	918377	STOP	n/a	n/a	n/a	-999	11	[-999, -999, -999]	n/a	0	1	0	n/a	n/a	0.0	0	0	0	FR2	2	R1177M
1817.89	1.201	918381	DISTRACT_END	n/a	n/a	n/a	-999	11	[0, 0, 0]	n/a	0	1	0	n/a	n/a	0.0	0	0	0	FR2	2	R1177M
1819.091	5.792	918982	REC_START	n/a	n/a	n/a	-999	11	[0, 0, 0]	n/a	0	1	0	n/a	n/a	0.0	0	0	0	FR2	2	R1177M
1824.883	2.545	921877	REC_WORD	5.792	n/a	LEG	-999	11	[0, 0, 0]	n/a	0	1	0	n/a	n/a	0.0	0	0	0	FR2	2	R1177M
1827.428	3.974	923150	REC_WORD	8.337	n/a	PHONE	-999	11	[0, 0, 0]	n/a	0	1	0	n/a	n/a	0.0	0	0	0	FR2	2	R1177M
1831.402	4.989	925137	REC_WORD	12.311	n/a	WHALE	-999	11	[0, 0, 0]	n/a	0	1	0	n/a	n/a	0.0	0	0	0	FR2	2	R1177M
1836.391	6.865	927631	REC_WORD	17.3	n/a	STRAW	-999	11	[0, 0, 0]	n/a	0	1	0	n/a	n/a	0.0	0	0	0	FR2	2	R1177M
1843.256	5.845	931063	REC_WORD	24.165	n/a	BEAN	-999	11	[0, 0, 0]	n/a	0	1	0	n/a	n/a	0.0	0	0	0	FR2	2	R1177M
1849.101	22.566	933985	REC_END	n/a	n/a	n/a	-999	11	[0, 0, 0]	n/a	0	1	0	n/a	n/a	0.0	0	0	0	FR2	2	R1177M
1871.667	10.0	945267	COUNTDOWN_START	n/a	n/a	n/a	-999	12	[0, 0, 0]	n/a	0	0	0	n/a	n/a	0.0	0	0	0	FR2	2	R1177M
1871.668	10.427	945268	TRIAL	n/a	n/a	n/a	-999	12	[0, 0, 0]	n/a	0	0	0	n/a	n/a	0.0	0	0	0	FR2	2	R1177M
1882.095	0.008	950481	COUNTDOWN_END	n/a	n/a	n/a	-999	12	[0, 0, 0]	n/a	0	0	0	n/a	n/a	0.0	0	0	0	FR2	2	R1177M
1882.103	1.6	950485	ORIENT	n/a	n/a	n/a	-999	12	[0, 0, 0]	n/a	0	0	0	n/a	n/a	0.0	0	0	0	FR2	2	R1177M
1884.554	1.6	951710	WORD	n/a	wordpools/wordpool_EN.txt	WORM	1	12	[0, 0, 0]	n/a	0	0	0	n/a	n/a	0.0	0	0	0	FR2	2	R1177M
1886.97	1.6	952918	WORD	n/a	wordpools/wordpool_EN.txt	TANK	2	12	[0, 0, 0]	n/a	0	0	0	n/a	n/a	0.0	0	0	0	FR2	2	R1177M
1889.538	1.6	954202	WORD	n/a	wordpools/wordpool_EN.txt	SHELL	3	12	[0, 0, 0]	n/a	0	0	0	n/a	n/a	0.0	0	0	0	FR2	2	R1177M
1892.156	1.6	955511	WORD	n/a	wordpools/wordpool_EN.txt	POND	4	12	[0, 0, 0]	n/a	0	0	0	n/a	n/a	0.0	0	0	0	FR2	2	R1177M
1894.605	1.6	956735	WORD	n/a	wordpools/wordpool_EN.txt	BRANCH	5	12	[0, 0, 0]	n/a	0	0	0	n/a	n/a	0.0	0	0	0	FR2	2	R1177M
1897.19	1.6	958028	WORD	n/a	wordpools/wordpool_EN.txt	TREE	6	12	[0, 0, 0]	n/a	0	0	0	n/a	n/a	0.0	0	0	0	FR2	2	R1177M
1899.673	1.6	959269	WORD	n/a	wordpools/wordpool_EN.txt	FLUTE	7	12	[0, 0, 0]	n/a	0	0	0	n/a	n/a	0.0	0	0	0	FR2	2	R1177M
1902.157	1.6	960511	WORD	n/a	wordpools/wordpool_EN.txt	CAKE	8	12	[0, 0, 0]	n/a	0	0	0	n/a	n/a	0.0	0	0	0	FR2	2	R1177M
1904.674	1.6	961770	WORD	n/a	wordpools/wordpool_EN.txt	STEM	9	12	[0, 0, 0]	n/a	0	0	0	n/a	n/a	0.0	0	0	0	FR2	2	R1177M
1907.158	1.6	963011	WORD	n/a	wordpools/wordpool_EN.txt	DOLL	10	12	[0, 0, 0]	n/a	0	0	0	n/a	n/a	0.0	0	0	0	FR2	2	R1177M
1909.625	1.6	964245	WORD	n/a	wordpools/wordpool_EN.txt	ROOT	11	12	[0, 0, 0]	n/a	0	0	0	n/a	n/a	0.0	0	0	0	FR2	2	R1177M
1912.025	1.6	965445	WORD	n/a	wordpools/wordpool_EN.txt	RAIN	12	12	[0, 0, 0]	n/a	0	0	0	n/a	n/a	0.0	0	0	0	FR2	2	R1177M
1913.642	0.001	966253	DISTRACT_START	n/a	n/a	n/a	-999	12	[0, 0, 0]	n/a	0	0	0	n/a	n/a	0.0	0	0	0	FR2	2	R1177M
1913.643	0.016	966254	START	n/a	n/a	n/a	-999	12	[-999, -999, -999]	n/a	0	0	0	n/a	n/a	0.0	0	0	0	FR2	2	R1177M
1913.659	5.451	966262	PROB	5.423	n/a	n/a	-999	12	[7, 6, 7]	18	0	0	0	n/a	n/a	0.0	0	0	0	FR2	2	R1177M
1919.11	6.385	968987	PROB	6.35	n/a	n/a	-999	12	[7, 1, 9]	17	0	0	0	n/a	n/a	0.0	0	0	0	FR2	2	R1177M
1925.495	6.985	972179	PROB	6.965	n/a	n/a	-999	12	[6, 5, 5]	16	0	0	0	n/a	n/a	0.0	0	0	0	FR2	2	R1177M
1932.48	5.555	975671	PROB	5.555	n/a	n/a	-999	12	[6, 5, 4]	16	0	0	0	n/a	n/a	0.0	0	0	0	FR2	2	R1177M
1938.035	0.012	978449	STOP	n/a	n/a	n/a	-999	12	[-999, -999, -999]	n/a	0	0	0	n/a	n/a	0.0	0	0	0	FR2	2	R1177M
1938.047	1.185	978455	DISTRACT_END	n/a	n/a	n/a	-999	12	[0, 0, 0]	n/a	0	0	0	n/a	n/a	0.0	0	0	0	FR2	2	R1177M
1939.232	3.546	979047	REC_START	n/a	n/a	n/a	-999	12	[0, 0, 0]	n/a	0	0	0	n/a	n/a	0.0	0	0	0	FR2	2	R1177M
1942.778	3.428	980820	REC_WORD	3.546	n/a	POND	-999	12	[0, 0, 0]	n/a	0	0	0	n/a	n/a	0.0	0	0	0	FR2	2	R1177M
1946.206	3.061	982534	REC_WORD	6.974	n/a	CAKE	-999	12	[0, 0, 0]	n/a	0	0	0	n/a	n/a	0.0	0	0	0	FR2	2	R1177M
1949.267	6.75	984064	REC_WORD	10.035	n/a	TREE	-999	12	[0, 0, 0]	n/a	0	0	0	n/a	n/a	0.0	0	0	0	FR2	2	R1177M
1956.017	13.223	987439	REC_WORD	16.785	n/a	RAIN	-999	12	[0, 0, 0]	n/a	0	0	0	n/a	n/a	0.0	0	0	0	FR2	2	R1177M
1969.24	8.232	994050	REC_END	n/a	n/a	n/a	-999	12	[0, 0, 0]	n/a	0	0	0	n/a	n/a	0.0	0	0	0	FR2	2	R1177M
1977.472	10.0	998166	COUNTDOWN_START	n/a	n/a	n/a	-999	13	[0, 0, 0]	n/a	0	1	0	n/a	n/a	0.0	0	0	0	FR2	2	R1177M
1977.472	10.428	998166	TRIAL	n/a	n/a	n/a	-999	13	[0, 0, 0]	n/a	0	1	0	n/a	n/a	0.0	0	0	0	FR2	2	R1177M
1987.9	0.006	1003379	COUNTDOWN_END	n/a	n/a	n/a	-999	13	[0, 0, 0]	n/a	0	1	0	n/a	n/a	0.0	0	0	0	FR2	2	R1177M
1987.906	1.6	1003382	ORIENT	n/a	n/a	n/a	-999	13	[0, 0, 0]	n/a	0	1	0	n/a	n/a	0.0	0	0	0	FR2	2	R1177M
1990.374	1.6	1004616	WORD	n/a	wordpools/wordpool_EN.txt	SPEAR	1	13	[0, 0, 0]	n/a	0	1	0	n/a	n/a	0.0	0	0	0	FR2	2	R1177M
1992.924	1.6	1005891	WORD	n/a	wordpools/wordpool_EN.txt	SUN	2	13	[0, 0, 0]	n/a	0	1	0	n/a	n/a	0.0	0	0	0	FR2	2	R1177M
1995.28	4.6	1007069	STIM_ON	n/a	n/a	n/a	-999	13	[0, 0, 0]	n/a	1	1	4600	LG50	LG51	1000.0	50	230	300	FR2	2	R1177M
1995.492	1.6	1007175	WORD	n/a	wordpools/wordpool_EN.txt	EAR	3	13	[0, 0, 0]	n/a	1	1	4600	LG50	LG51	1000.0	50	230	300	FR2	2	R1177M
1997.925	1.6	1008391	WORD	n/a	wordpools/wordpool_EN.txt	SHEET	4	13	[0, 0, 0]	n/a	1	1	4600	LG50	LG51	1000.0	50	230	300	FR2	2	R1177M
2000.46	1.6	1009659	WORD	n/a	wordpools/wordpool_EN.txt	CLOWN	5	13	[0, 0, 0]	n/a	0	1	0	n/a	n/a	0.0	0	0	0	FR2	2	R1177M
2002.959	1.6	1010908	WORD	n/a	wordpools/wordpool_EN.txt	TRASH	6	13	[0, 0, 0]	n/a	0	1	0	n/a	n/a	0.0	0	0	0	FR2	2	R1177M
2005.21	4.6	1012033	STIM_ON	n/a	n/a	n/a	-999	13	[0, 0, 0]	n/a	1	1	4600	LG50	LG51	1000.0	50	230	300	FR2	2	R1177M
2005.427	1.6	1012142	WORD	n/a	wordpools/wordpool_EN.txt	PARK	7	13	[0, 0, 0]	n/a	1	1	4600	LG50	LG51	1000.0	50	230	300	FR2	2	R1177M
2007.877	1.6	1013367	WORD	n/a	wordpools/wordpool_EN.txt	SNAKE	8	13	[0, 0, 0]	n/a	1	1	4600	LG50	LG51	1000.0	50	230	300	FR2	2	R1177M
2010.295	1.6	1014576	WORD	n/a	wordpools/wordpool_EN.txt	BRUSH	9	13	[0, 0, 0]	n/a	0	1	0	n/a	n/a	0.0	0	0	0	FR2	2	R1177M
2012.744	1.6	1015800	WORD	n/a	wordpools/wordpool_EN.txt	TOAD	10	13	[0, 0, 0]	n/a	0	1	0	n/a	n/a	0.0	0	0	0	FR2	2	R1177M
2014.96	4.6	1016908	STIM_ON	n/a	n/a	n/a	-999	13	[0, 0, 0]	n/a	1	1	4600	LG50	LG51	1000.0	50	230	300	FR2	2	R1177M
2015.162	1.6	1017009	WORD	n/a	wordpools/wordpool_EN.txt	FROG	11	13	[0, 0, 0]	n/a	1	1	4600	LG50	LG51	1000.0	50	230	300	FR2	2	R1177M
2017.546	1.6	1018201	WORD	n/a	wordpools/wordpool_EN.txt	THUMB	12	13	[0, 0, 0]	n/a	1	1	4600	LG50	LG51	1000.0	50	230	300	FR2	2	R1177M
2019.163	0.001	1019009	DISTRACT_START	n/a	n/a	n/a	-999	13	[0, 0, 0]	n/a	1	1	4600	LG50	LG51	1000.0	50	230	300	FR2	2	R1177M
2019.164	0.016	1019010	START	n/a	n/a	n/a	-999	13	[-999, -999, -999]	n/a	0	1	0	n/a	n/a	0.0	0	0	0	FR2	2	R1177M
2019.18	8.152	1019018	PROB	8.128	n/a	n/a	-999	13	[7, 3, 1]	10	0	1	0	n/a	n/a	0.0	0	0	0	FR2	2	R1177M
2027.332	5.55	1023094	PROB	5.518	n/a	n/a	-999	13	[6, 6, 5]	14	0	1	0	n/a	n/a	0.0	0	0	0	FR2	2	R1177M
2032.882	7.225	1025868	PROB	7.225	n/a	n/a	-999	13	[9, 1, 9]	19	0	1	0	n/a	n/a	0.0	0	0	0	FR2	2	R1177M
2040.107	0.009	1029481	STOP	n/a	n/a	n/a	-999	13	[-999, -999, -999]	n/a	0	1	0	n/a	n/a	0.0	0	0	0	FR2	2	R1177M
2040.116	1.169	1029485	DISTRACT_END	n/a	n/a	n/a	-999	13	[0, 0, 0]	n/a	0	1	0	n/a	n/a	0.0	0	0	0	FR2	2	R1177M
2041.285	0.429	1030069	REC_START	n/a	n/a	n/a	-999	13	[0, 0, 0]	n/a	0	1	0	n/a	n/a	0.0	0	0	0	FR2	2	R1177M
2041.714	1.468	1030284	REC_WORD	0.429	n/a	SUN	-999	13	[0, 0, 0]	n/a	0	1	0	n/a	n/a	0.0	0	0	0	FR2	2	R1177M
2043.182	13.516	1031018	REC_WORD	1.897	n/a	TOAD	-999	13	[0, 0, 0]	n/a	0	1	0	n/a	n/a	0.0	0	0	0	FR2	2	R1177M
2056.698	14.596	1037775	REC_WORD	15.413	n/a	SHEET	-999	13	[0, 0, 0]	n/a	0	1	0	n/a	n/a	0.0	0	0	0	FR2	2	R1177M
2071.294	4.813	1045073	REC_END	n/a	n/a	n/a	-999	13	[0, 0, 0]	n/a	0	1	0	n/a	n/a	0.0	0	0	0	FR2	2	R1177M
2076.107	0.0	1047479	TRIAL	n/a	n/a	n/a	-999	14	[0, 0, 0]	n/a	0	1	0	n/a	n/a	0.0	0	0	0	FR2	2	R1177M
2076.107	10.0	1047479	COUNTDOWN_START	n/a	n/a	n/a	-999	14	[0, 0, 0]	n/a	0	1	0	n/a	n/a	0.0	0	0	0	FR2	2	R1177M
2086.535	0.008	1052693	COUNTDOWN_END	n/a	n/a	n/a	-999	14	[0, 0, 0]	n/a	0	1	0	n/a	n/a	0.0	0	0	0	FR2	2	R1177M
2086.543	1.6	1052697	ORIENT	n/a	n/a	n/a	-999	14	[0, 0, 0]	n/a	0	1	0	n/a	n/a	0.0	0	0	0	FR2	2	R1177M
2088.835	4.6	1053843	STIM_ON	n/a	n/a	n/a	-999	14	[0, 0, 0]	n/a	1	1	4600	LG50	LG51	1000.0	50	230	300	FR2	2	R1177M
2089.043	1.6	1053947	WORD	n/a	wordpools/wordpool_EN.txt	CAVE	1	14	[0, 0, 0]	n/a	1	1	4600	LG50	LG51	1000.0	50	230	300	FR2	2	R1177M
2091.444	1.6	1055147	WORD	n/a	wordpools/wordpool_EN.txt	BOOK	2	14	[0, 0, 0]	n/a	1	1	4600	LG50	LG51	1000.0	50	230	300	FR2	2	R1177M
2093.927	1.6	1056388	WORD	n/a	wordpools/wordpool_EN.txt	BOARD	3	14	[0, 0, 0]	n/a	0	1	0	n/a	n/a	0.0	0	0	0	FR2	2	R1177M
2096.495	1.6	1057672	WORD	n/a	wordpools/wordpool_EN.txt	RAT	4	14	[0, 0, 0]	n/a	0	1	0	n/a	n/a	0.0	0	0	0	FR2	2	R1177M
2098.713	4.6	1058781	STIM_ON	n/a	n/a	n/a	-999	14	[0, 0, 0]	n/a	1	1	4600	LG50	LG51	1000.0	50	230	300	FR2	2	R1177M
2098.928	1.6	1058889	WORD	n/a	wordpools/wordpool_EN.txt	SNOW	5	14	[0, 0, 0]	n/a	1	1	4600	LG50	LG51	1000.0	50	230	300	FR2	2	R1177M
2101.529	1.6	1060189	WORD	n/a	wordpools/wordpool_EN.txt	MOUTH	6	14	[0, 0, 0]	n/a	1	1	4600	LG50	LG51	1000.0	50	230	300	FR2	2	R1177M
2104.112	1.6	1061480	WORD	n/a	wordpools/wordpool_EN.txt	LAMB	7	14	[0, 0, 0]	n/a	0	1	0	n/a	n/a	0.0	0	0	0	FR2	2	R1177M
2106.513	1.6	1062681	WORD	n/a	wordpools/wordpool_EN.txt	BRIDGE	8	14	[0, 0, 0]	n/a	0	1	0	n/a	n/a	0.0	0	0	0	FR2	2	R1177M
2108.894	4.6	1063871	STIM_ON	n/a	n/a	n/a	-999	14	[0, 0, 0]	n/a	1	1	4600	LG50	LG51	1000.0	50	230	300	FR2	2	R1177M
2109.096	1.6	1063972	WORD	n/a	wordpools/wordpool_EN.txt	DOG	9	14	[0, 0, 0]	n/a	1	1	4600	LG50	LG51	1000.0	50	230	300	FR2	2	R1177M
2111.548	1.6	1065198	WORD	n/a	wordpools/wordpool_EN.txt	CART	10	14	[0, 0, 0]	n/a	1	1	4600	LG50	LG51	1000.0	50	230	300	FR2	2	R1177M
2114.03	1.6	1066439	WORD	n/a	wordpools/wordpool_EN.txt	SHIP	11	14	[0, 0, 0]	n/a	0	1	0	n/a	n/a	0.0	0	0	0	FR2	2	R1177M
2116.415	1.6	1067631	WORD	n/a	wordpools/wordpool_EN.txt	WORLD	12	14	[0, 0, 0]	n/a	0	1	0	n/a	n/a	0.0	0	0	0	FR2	2	R1177M
2118.031	0.001	1068439	DISTRACT_START	n/a	n/a	n/a	-999	14	[0, 0, 0]	n/a	0	1	0	n/a	n/a	0.0	0	0	0	FR2	2	R1177M
2118.032	0.016	1068440	START	n/a	n/a	n/a	-999	14	[-999, -999, -999]	n/a	0	1	0	n/a	n/a	0.0	0	0	0	FR2	2	R1177M
2118.048	4.302	1068448	PROB	4.276	n/a	n/a	-999	14	[5, 6, 1]	11	0	1	0	n/a	n/a	0.0	0	0	0	FR2	2	R1177M
2122.35	7.6	1070599	PROB	7.573	n/a	n/a	-999	14	[9, 6, 2]	17	0	1	0	n/a	n/a	0.0	0	0	0	FR2	2	R1177M
2129.95	4.868	1074398	PROB	4.845	n/a	n/a	-999	14	[2, 6, 4]	12	0	1	0	n/a	n/a	0.0	0	0	0	FR2	2	R1177M
2134.818	8.553	1076832	PROB	8.553	n/a	n/a	-999	14	[4, 5, 8]	15	0	1	0	n/a	n/a	0.0	0	0	0	FR2	2	R1177M
2143.371	0.016	1081108	STOP	n/a	n/a	n/a	-999	14	[-999, -999, -999]	n/a	0	1	0	n/a	n/a	0.0	0	0	0	FR2	2	R1177M
2143.387	1.217	1081116	DISTRACT_END	n/a	n/a	n/a	-999	14	[0, 0, 0]	n/a	0	1	0	n/a	n/a	0.0	0	0	0	FR2	2	R1177M
2144.604	2.343	1081725	REC_START	n/a	n/a	n/a	-999	14	[0, 0, 0]	n/a	0	1	0	n/a	n/a	0.0	0	0	0	FR2	2	R1177M
2146.947	1.133	1082896	REC_WORD	2.343	n/a	SHIP	-999	14	[0, 0, 0]	n/a	0	1	0	n/a	n/a	0.0	0	0	0	FR2	2	R1177M
2148.08	3.803	1083463	REC_WORD	3.476	n/a	DOG	-999	14	[0, 0, 0]	n/a	0	1	0	n/a	n/a	0.0	0	0	0	FR2	2	R1177M
2151.883	9.38	1085364	REC_WORD	7.279	n/a	RAT	-999	14	[0, 0, 0]	n/a	0	1	0	n/a	n/a	0.0	0	0	0	FR2	2	R1177M
2161.263	13.351	1090054	REC_WORD_VV	16.659	n/a	<>	-999	14	[0, 0, 0]	n/a	0	1	0	n/a	n/a	0.0	0	0	0	FR2	2	R1177M
2174.614	8.446	1096729	REC_END	n/a	n/a	n/a	-999	14	[0, 0, 0]	n/a	0	1	0	n/a	n/a	0.0	0	0	0	FR2	2	R1177M
2183.06	10.0	1100951	COUNTDOWN_START	n/a	n/a	n/a	-999	15	[0, 0, 0]	n/a	0	1	0	n/a	n/a	0.0	0	0	0	FR2	2	R1177M
2183.061	10.427	1100952	TRIAL	n/a	n/a	n/a	-999	15	[0, 0, 0]	n/a	0	1	0	n/a	n/a	0.0	0	0	0	FR2	2	R1177M
2193.488	0.009	1106165	COUNTDOWN_END	n/a	n/a	n/a	-999	15	[0, 0, 0]	n/a	0	1	0	n/a	n/a	0.0	0	0	0	FR2	2	R1177M
2193.497	1.6	1106169	ORIENT	n/a	n/a	n/a	-999	15	[0, 0, 0]	n/a	0	1	0	n/a	n/a	0.0	0	0	0	FR2	2	R1177M
2196.063	1.6	1107452	WORD	n/a	wordpools/wordpool_EN.txt	SIGN	1	15	[0, 0, 0]	n/a	0	1	0	n/a	n/a	0.0	0	0	0	FR2	2	R1177M
2198.565	1.6	1108703	WORD	n/a	wordpools/wordpool_EN.txt	CASH	2	15	[0, 0, 0]	n/a	0	1	0	n/a	n/a	0.0	0	0	0	FR2	2	R1177M
2200.74	4.6	1109791	STIM_ON	n/a	n/a	n/a	-999	15	[0, 0, 0]	n/a	1	1	4600	LG50	LG51	1000.0	50	230	300	FR2	2	R1177M
2200.948	1.6	1109895	WORD	n/a	wordpools/wordpool_EN.txt	PIE	3	15	[0, 0, 0]	n/a	1	1	4600	LG50	LG51	1000.0	50	230	300	FR2	2	R1177M
2203.416	1.6	1111128	WORD	n/a	wordpools/wordpool_EN.txt	ARK	4	15	[0, 0, 0]	n/a	1	1	4600	LG50	LG51	1000.0	50	230	300	FR2	2	R1177M
2205.848	1.6	1112344	WORD	n/a	wordpools/wordpool_EN.txt	PIT	5	15	[0, 0, 0]	n/a	0	1	0	n/a	n/a	0.0	0	0	0	FR2	2	R1177M
2208.45	1.6	1113645	WORD	n/a	wordpools/wordpool_EN.txt	FOAM	6	15	[0, 0, 0]	n/a	0	1	0	n/a	n/a	0.0	0	0	0	FR2	2	R1177M
2210.824	4.6	1114832	STIM_ON	n/a	n/a	n/a	-999	15	[0, 0, 0]	n/a	1	1	4600	LG50	LG51	1000.0	50	230	300	FR2	2	R1177M
2211.033	1.6	1114937	WORD	n/a	wordpools/wordpool_EN.txt	HORSE	7	15	[0, 0, 0]	n/a	1	1	4600	LG50	LG51	1000.0	50	230	300	FR2	2	R1177M
2213.617	1.6	1116229	WORD	n/a	wordpools/wordpool_EN.txt	SWAMP	8	15	[0, 0, 0]	n/a	1	1	4600	LG50	LG51	1000.0	50	230	300	FR2	2	R1177M
2216.201	1.6	1117520	WORD	n/a	wordpools/wordpool_EN.txt	BANK	9	15	[0, 0, 0]	n/a	0	1	0	n/a	n/a	0.0	0	0	0	FR2	2	R1177M
2218.651	1.6	1118745	WORD	n/a	wordpools/wordpool_EN.txt	HILL	10	15	[0, 0, 0]	n/a	0	1	0	n/a	n/a	0.0	0	0	0	FR2	2	R1177M
2220.915	4.6	1119877	STIM_ON	n/a	n/a	n/a	-999	15	[0, 0, 0]	n/a	1	1	4600	LG50	LG51	1000.0	50	230	300	FR2	2	R1177M
2221.118	1.6	1119979	WORD	n/a	wordpools/wordpool_EN.txt	NEST	11	15	[0, 0, 0]	n/a	1	1	4600	LG50	LG51	1000.0	50	230	300	FR2	2	R1177M
2223.702	1.6	1121271	WORD	n/a	wordpools/wordpool_EN.txt	TAIL	12	15	[0, 0, 0]	n/a	1	1	4600	LG50	LG51	1000.0	50	230	300	FR2	2	R1177M
2225.32	0.001	1122080	DISTRACT_START	n/a	n/a	n/a	-999	15	[0, 0, 0]	n/a	1	1	4600	LG50	LG51	1000.0	50	230	300	FR2	2	R1177M
2225.321	0.015	1122080	START	n/a	n/a	n/a	-999	15	[-999, -999, -999]	n/a	0	1	0	n/a	n/a	0.0	0	0	0	FR2	2	R1177M
2225.336	3.717	1122088	PROB	3.682	n/a	n/a	-999	15	[2, 6, 5]	12	0	1	0	n/a	n/a	0.0	0	0	0	FR2	2	R1177M
2229.053	3.917	1123946	PROB	3.894	n/a	n/a	-999	15	[6, 6, 1]	14	0	1	0	n/a	n/a	0.0	0	0	0	FR2	2	R1177M
2232.97	6.236	1125904	PROB	6.21	n/a	n/a	-999	15	[3, 6, 7]	15	0	1	0	n/a	n/a	0.0	0	0	0	FR2	2	R1177M
2239.206	5.268	1129022	PROB	5.238	n/a	n/a	-999	15	[8, 6, 3]	14	0	1	0	n/a	n/a	0.0	0	0	0	FR2	2	R1177M
2244.474	7.778	1131656	PROB	7.778	n/a	n/a	-999	15	[8, 3, 1]	12	0	1	0	n/a	n/a	0.0	0	0	0	FR2	2	R1177M
2252.252	0.006	1135544	STOP	n/a	n/a	n/a	-999	15	[-999, -999, -999]	n/a	0	1	0	n/a	n/a	0.0	0	0	0	FR2	2	R1177M
2252.258	1.184	1135547	DISTRACT_END	n/a	n/a	n/a	-999	15	[0, 0, 0]	n/a	0	1	0	n/a	n/a	0.0	0	0	0	FR2	2	R1177M
2253.442	4.972	1136139	REC_START	n/a	n/a	n/a	-999	15	[0, 0, 0]	n/a	0	1	0	n/a	n/a	0.0	0	0	0	FR2	2	R1177M
2258.414	1.183	1138625	REC_WORD	4.972	n/a	PIE	-999	15	[0, 0, 0]	n/a	0	1	0	n/a	n/a	0.0	0	0	0	FR2	2	R1177M
2259.597	1.905	1139217	REC_WORD	6.155	n/a	PIT	-999	15	[0, 0, 0]	n/a	0	1	0	n/a	n/a	0.0	0	0	0	FR2	2	R1177M
2261.502	1.242	1140169	REC_WORD	8.06	n/a	HORSE	-999	15	[0, 0, 0]	n/a	0	1	0	n/a	n/a	0.0	0	0	0	FR2	2	R1177M
2262.744	9.491	1140790	REC_WORD	9.302	n/a	NEST	-999	15	[0, 0, 0]	n/a	0	1	0	n/a	n/a	0.0	0	0	0	FR2	2	R1177M
2272.235	11.219	1145535	REC_WORD	18.793	n/a	FOAM	-999	15	[0, 0, 0]	n/a	0	1	0	n/a	n/a	0.0	0	0	0	FR2	2	R1177M
2283.454	394.502	1151144	REC_END	n/a	n/a	n/a	-999	15	[0, 0, 0]	n/a	0	1	0	n/a	n/a	0.0	0	0	0	FR2	2	R1177M
2677.956	0.0	1348379	TRIAL	n/a	n/a	n/a	-999	16	[0, 0, 0]	n/a	0	1	0	n/a	n/a	0.0	0	0	0	FR2	2	R1177M
2677.956	10.0	1348379	COUNTDOWN_START	n/a	n/a	n/a	-999	16	[0, 0, 0]	n/a	0	1	0	n/a	n/a	0.0	0	0	0	FR2	2	R1177M
2688.384	0.008	1353593	COUNTDOWN_END	n/a	n/a	n/a	-999	16	[0, 0, 0]	n/a	0	1	0	n/a	n/a	0.0	0	0	0	FR2	2	R1177M
2688.392	1.6	1353597	ORIENT	n/a	n/a	n/a	-999	16	[0, 0, 0]	n/a	0	1	0	n/a	n/a	0.0	0	0	0	FR2	2	R1177M
2690.757	4.6	1354779	STIM_ON	n/a	n/a	n/a	-999	16	[0, 0, 0]	n/a	1	1	4600	LG50	LG51	1000.0	50	230	300	FR2	2	R1177M
2690.975	1.6	1354888	WORD	n/a	wordpools/wordpool_EN.txt	PRINCE	1	16	[0, 0, 0]	n/a	1	1	4600	LG50	LG51	1000.0	50	230	300	FR2	2	R1177M
2693.527	1.6	1356164	WORD	n/a	wordpools/wordpool_EN.txt	TOOL	2	16	[0, 0, 0]	n/a	1	1	4600	LG50	LG51	1000.0	50	230	300	FR2	2	R1177M
2695.993	1.6	1357397	WORD	n/a	wordpools/wordpool_EN.txt	NAIL	3	16	[0, 0, 0]	n/a	0	1	0	n/a	n/a	0.0	0	0	0	FR2	2	R1177M
2698.544	1.6	1358672	WORD	n/a	wordpools/wordpool_EN.txt	JUDGE	4	16	[0, 0, 0]	n/a	0	1	0	n/a	n/a	0.0	0	0	0	FR2	2	R1177M
2700.741	4.6	1359771	STIM_ON	n/a	n/a	n/a	-999	16	[0, 0, 0]	n/a	1	1	4600	LG50	LG51	1000.0	50	230	300	FR2	2	R1177M
2700.944	1.6	1359872	WORD	n/a	wordpools/wordpool_EN.txt	TEETH	5	16	[0, 0, 0]	n/a	1	1	4600	LG50	LG51	1000.0	50	230	300	FR2	2	R1177M
2703.345	1.6	1361073	WORD	n/a	wordpools/wordpool_EN.txt	BEACH	6	16	[0, 0, 0]	n/a	1	1	4600	LG50	LG51	1000.0	50	230	300	FR2	2	R1177M
2705.945	1.6	1362373	WORD	n/a	wordpools/wordpool_EN.txt	GLASS	7	16	[0, 0, 0]	n/a	0	1	0	n/a	n/a	0.0	0	0	0	FR2	2	R1177M
2708.546	1.6	1363673	WORD	n/a	wordpools/wordpool_EN.txt	TOAST	8	16	[0, 0, 0]	n/a	0	1	0	n/a	n/a	0.0	0	0	0	FR2	2	R1177M
2710.78	4.6	1364790	STIM_ON	n/a	n/a	n/a	-999	16	[0, 0, 0]	n/a	1	1	4600	LG50	LG51	1000.0	50	230	300	FR2	2	R1177M
2710.996	1.6	1364898	WORD	n/a	wordpools/wordpool_EN.txt	TOE	9	16	[0, 0, 0]	n/a	1	1	4600	LG50	LG51	1000.0	50	230	300	FR2	2	R1177M
2713.431	1.6	1366115	WORD	n/a	wordpools/wordpool_EN.txt	SPOON	10	16	[0, 0, 0]	n/a	1	1	4600	LG50	LG51	1000.0	50	230	300	FR2	2	R1177M
2715.864	1.6	1367332	WORD	n/a	wordpools/wordpool_EN.txt	KITE	11	16	[0, 0, 0]	n/a	0	1	0	n/a	n/a	0.0	0	0	0	FR2	2	R1177M
2718.382	1.6	1368591	WORD	n/a	wordpools/wordpool_EN.txt	ROOM	12	16	[0, 0, 0]	n/a	0	1	0	n/a	n/a	0.0	0	0	0	FR2	2	R1177M
2719.998	0.0	1369398	DISTRACT_START	n/a	n/a	n/a	-999	16	[0, 0, 0]	n/a	0	1	0	n/a	n/a	0.0	0	0	0	FR2	2	R1177M
2719.998	0.016	1369398	START	n/a	n/a	n/a	-999	16	[-999, -999, -999]	n/a	0	1	0	n/a	n/a	0.0	0	0	0	FR2	2	R1177M
2720.014	8.885	1369406	PROB	8.853	n/a	n/a	-999	16	[6, 1, 3]	15	0	1	0	n/a	n/a	0.0	0	0	0	FR2	2	R1177M
2728.899	8.32	1373849	PROB	8.288	n/a	n/a	-999	16	[3, 8, 2]	13	0	1	0	n/a	n/a	0.0	0	0	0	FR2	2	R1177M
2737.219	9.248	1378008	PROB	9.248	n/a	n/a	-999	16	[9, 6, 7]	15	0	1	0	n/a	n/a	0.0	0	0	0	FR2	2	R1177M
2746.467	0.003	1382632	STOP	n/a	n/a	n/a	-999	16	[-999, -999, -999]	n/a	0	1	0	n/a	n/a	0.0	0	0	0	FR2	2	R1177M
2746.47	1.15	1382633	DISTRACT_END	n/a	n/a	n/a	-999	16	[0, 0, 0]	n/a	0	1	0	n/a	n/a	0.0	0	0	0	FR2	2	R1177M
2747.62	2.462	1383208	REC_START	n/a	n/a	n/a	-999	16	[0, 0, 0]	n/a	0	1	0	n/a	n/a	0.0	0	0	0	FR2	2	R1177M
2750.082	1.271	1384439	REC_WORD	2.462	n/a	KITE	-999	16	[0, 0, 0]	n/a	0	1	0	n/a	n/a	0.0	0	0	0	FR2	2	R1177M
2751.353	26.276	1385075	REC_WORD	3.733	n/a	ROOM	-999	16	[0, 0, 0]	n/a	0	1	0	n/a	n/a	0.0	0	0	0	FR2	2	R1177M
2777.629	2.414	1398212	REC_END	n/a	n/a	n/a	-999	16	[0, 0, 0]	n/a	0	1	0	n/a	n/a	0.0	0	0	0	FR2	2	R1177M
2780.043	0.0	1399419	TRIAL	n/a	n/a	n/a	-999	17	[0, 0, 0]	n/a	0	1	0	n/a	n/a	0.0	0	0	0	FR2	2	R1177M
2780.043	10.0	1399419	COUNTDOWN_START	n/a	n/a	n/a	-999	17	[0, 0, 0]	n/a	0	1	0	n/a	n/a	0.0	0	0	0	FR2	2	R1177M
2790.471	0.008	1404632	COUNTDOWN_END	n/a	n/a	n/a	-999	17	[0, 0, 0]	n/a	0	1	0	n/a	n/a	0.0	0	0	0	FR2	2	R1177M
2790.479	1.6	1404636	ORIENT	n/a	n/a	n/a	-999	17	[0, 0, 0]	n/a	0	1	0	n/a	n/a	0.0	0	0	0	FR2	2	R1177M
2792.878	1.6	1405836	WORD	n/a	wordpools/wordpool_EN.txt	TRAY	1	17	[0, 0, 0]	n/a	0	1	0	n/a	n/a	0.0	0	0	0	FR2	2	R1177M
2795.38	1.6	1407086	WORD	n/a	wordpools/wordpool_EN.txt	BREAD	2	17	[0, 0, 0]	n/a	0	1	0	n/a	n/a	0.0	0	0	0	FR2	2	R1177M
2797.799	4.6	1408296	STIM_ON	n/a	n/a	n/a	-999	17	[0, 0, 0]	n/a	1	1	4600	LG50	LG51	1000.0	50	230	300	FR2	2	R1177M
2798.013	1.6	1408403	WORD	n/a	wordpools/wordpool_EN.txt	CORN	3	17	[0, 0, 0]	n/a	1	1	4600	LG50	LG51	1000.0	50	230	300	FR2	2	R1177M
2800.398	1.6	1409595	WORD	n/a	wordpools/wordpool_EN.txt	SPARK	4	17	[0, 0, 0]	n/a	1	1	4600	LG50	LG51	1000.0	50	230	300	FR2	2	R1177M
2802.88	1.6	1410836	WORD	n/a	wordpools/wordpool_EN.txt	TEA	5	17	[0, 0, 0]	n/a	0	1	0	n/a	n/a	0.0	0	0	0	FR2	2	R1177M
2805.248	1.6	1412020	WORD	n/a	wordpools/wordpool_EN.txt	GLOVE	6	17	[0, 0, 0]	n/a	0	1	0	n/a	n/a	0.0	0	0	0	FR2	2	R1177M
2807.486	4.6	1413139	STIM_ON	n/a	n/a	n/a	-999	17	[0, 0, 0]	n/a	1	1	4600	LG50	LG51	1000.0	50	230	300	FR2	2	R1177M
2807.698	1.6	1413245	WORD	n/a	wordpools/wordpool_EN.txt	WEED	7	17	[0, 0, 0]	n/a	1	1	4600	LG50	LG51	1000.0	50	230	300	FR2	2	R1177M
2810.183	1.6	1414487	WORD	n/a	wordpools/wordpool_EN.txt	WHEEL	8	17	[0, 0, 0]	n/a	1	1	4600	LG50	LG51	1000.0	50	230	300	FR2	2	R1177M
2812.567	1.6	1415679	WORD	n/a	wordpools/wordpool_EN.txt	CLAY	9	17	[0, 0, 0]	n/a	0	1	0	n/a	n/a	0.0	0	0	0	FR2	2	R1177M
2814.966	1.6	1416879	WORD	n/a	wordpools/wordpool_EN.txt	CLOCK	10	17	[0, 0, 0]	n/a	0	1	0	n/a	n/a	0.0	0	0	0	FR2	2	R1177M
2817.37	4.6	1418081	STIM_ON	n/a	n/a	n/a	-999	17	[0, 0, 0]	n/a	1	1	4600	LG50	LG51	1000.0	50	230	300	FR2	2	R1177M
2817.583	1.6	1418187	WORD	n/a	wordpools/wordpool_EN.txt	DUCK	11	17	[0, 0, 0]	n/a	1	1	4600	LG50	LG51	1000.0	50	230	300	FR2	2	R1177M
2820.017	1.6	1419404	WORD	n/a	wordpools/wordpool_EN.txt	FOG	12	17	[0, 0, 0]	n/a	1	1	4600	LG50	LG51	1000.0	50	230	300	FR2	2	R1177M
2821.634	0.001	1420212	DISTRACT_START	n/a	n/a	n/a	-999	17	[0, 0, 0]	n/a	1	1	4600	LG50	LG51	1000.0	50	230	300	FR2	2	R1177M
2821.635	0.016	1420213	START	n/a	n/a	n/a	-999	17	[-999, -999, -999]	n/a	0	1	0	n/a	n/a	0.0	0	0	0	FR2	2	R1177M
2821.651	5.184	1420221	PROB	5.151	n/a	n/a	-999	17	[6, 5, 7]	19	0	1	0	n/a	n/a	0.0	0	0	0	FR2	2	R1177M
2826.835	7.751	1422813	PROB	7.729	n/a	n/a	-999	17	[2, 3, 3]	8	0	1	0	n/a	n/a	0.0	0	0	0	FR2	2	R1177M
2834.586	3.051	1426688	PROB	3.025	n/a	n/a	-999	17	[3, 3, 3]	9	0	1	0	n/a	n/a	0.0	0	0	0	FR2	2	R1177M
2837.637	5.854	1428213	PROB	5.854	n/a	n/a	-999	17	[8, 4, 6]	18	0	1	0	n/a	n/a	0.0	0	0	0	FR2	2	R1177M
2843.491	0.015	1431140	STOP	n/a	n/a	n/a	-999	17	[-999, -999, -999]	n/a	0	1	0	n/a	n/a	0.0	0	0	0	FR2	2	R1177M
2843.506	1.051	1431147	DISTRACT_END	n/a	n/a	n/a	-999	17	[0, 0, 0]	n/a	0	1	0	n/a	n/a	0.0	0	0	0	FR2	2	R1177M
2844.557	4.438	1431673	REC_START	n/a	n/a	n/a	-999	17	[0, 0, 0]	n/a	0	1	0	n/a	n/a	0.0	0	0	0	FR2	2	R1177M
2848.995	3.088	1433892	REC_WORD	4.438	n/a	CORN	-999	17	[0, 0, 0]	n/a	0	1	0	n/a	n/a	0.0	0	0	0	FR2	2	R1177M
2852.083	8.15	1435436	REC_WORD	7.526	n/a	DUCK	-999	17	[0, 0, 0]	n/a	0	1	0	n/a	n/a	0.0	0	0	0	FR2	2	R1177M
2860.233	7.542	1439510	REC_WORD	15.676	n/a	GLOVE	-999	17	[0, 0, 0]	n/a	0	1	0	n/a	n/a	0.0	0	0	0	FR2	2	R1177M
2867.775	6.792	1443281	REC_WORD	23.218	n/a	TEA	-999	17	[0, 0, 0]	n/a	0	1	0	n/a	n/a	0.0	0	0	0	FR2	2	R1177M
2874.567	92.646	1446677	REC_END	n/a	n/a	n/a	-999	17	[0, 0, 0]	n/a	0	1	0	n/a	n/a	0.0	0	0	0	FR2	2	R1177M
2967.213	0.0	1492996	TRIAL	n/a	n/a	n/a	-999	18	[0, 0, 0]	n/a	0	1	0	n/a	n/a	0.0	0	0	0	FR2	2	R1177M
2967.213	10.0	1492996	COUNTDOWN_START	n/a	n/a	n/a	-999	18	[0, 0, 0]	n/a	0	1	0	n/a	n/a	0.0	0	0	0	FR2	2	R1177M
2977.641	0.006	1498210	COUNTDOWN_END	n/a	n/a	n/a	-999	18	[0, 0, 0]	n/a	0	1	0	n/a	n/a	0.0	0	0	0	FR2	2	R1177M
2977.647	1.6	1498213	ORIENT	n/a	n/a	n/a	-999	18	[0, 0, 0]	n/a	0	1	0	n/a	n/a	0.0	0	0	0	FR2	2	R1177M
2979.919	4.6	1499348	STIM_ON	n/a	n/a	n/a	-999	18	[0, 0, 0]	n/a	1	1	4600	LG50	LG51	1000.0	50	230	300	FR2	2	R1177M
2980.131	1.6	1499454	WORD	n/a	wordpools/wordpool_EN.txt	ROPE	1	18	[0, 0, 0]	n/a	1	1	4600	LG50	LG51	1000.0	50	230	300	FR2	2	R1177M
2982.748	1.6	1500763	WORD	n/a	wordpools/wordpool_EN.txt	LAND	2	18	[0, 0, 0]	n/a	1	1	4600	LG50	LG51	1000.0	50	230	300	FR2	2	R1177M
2985.166	1.6	1501972	WORD	n/a	wordpools/wordpool_EN.txt	LIP	3	18	[0, 0, 0]	n/a	0	1	0	n/a	n/a	0.0	0	0	0	FR2	2	R1177M
2987.599	1.6	1503188	WORD	n/a	wordpools/wordpool_EN.txt	MOON	4	18	[0, 0, 0]	n/a	0	1	0	n/a	n/a	0.0	0	0	0	FR2	2	R1177M
2989.777	4.6	1504277	STIM_ON	n/a	n/a	n/a	-999	18	[0, 0, 0]	n/a	1	1	4600	LG50	LG51	1000.0	50	230	300	FR2	2	R1177M
2989.983	1.6	1504380	WORD	n/a	wordpools/wordpool_EN.txt	BED	5	18	[0, 0, 0]	n/a	1	1	4600	LG50	LG51	1000.0	50	230	300	FR2	2	R1177M
2992.568	1.6	1505672	WORD	n/a	wordpools/wordpool_EN.txt	FOOD	6	18	[0, 0, 0]	n/a	1	1	4600	LG50	LG51	1000.0	50	230	300	FR2	2	R1177M
2995.084	1.6	1506930	WORD	n/a	wordpools/wordpool_EN.txt	CRANE	7	18	[0, 0, 0]	n/a	0	1	0	n/a	n/a	0.0	0	0	0	FR2	2	R1177M
2997.668	1.6	1508222	WORD	n/a	wordpools/wordpool_EN.txt	POLE	8	18	[0, 0, 0]	n/a	0	1	0	n/a	n/a	0.0	0	0	0	FR2	2	R1177M
2999.911	4.6	1509344	STIM_ON	n/a	n/a	n/a	-999	18	[0, 0, 0]	n/a	1	1	4600	LG50	LG51	1000.0	50	230	300	FR2	2	R1177M
3000.119	1.6	1509448	WORD	n/a	wordpools/wordpool_EN.txt	COUCH	9	18	[0, 0, 0]	n/a	1	1	4600	LG50	LG51	1000.0	50	230	300	FR2	2	R1177M
3002.569	1.6	1510672	WORD	n/a	wordpools/wordpool_EN.txt	MAIL	10	18	[0, 0, 0]	n/a	1	1	4600	LG50	LG51	1000.0	50	230	300	FR2	2	R1177M
3004.969	1.6	1511872	WORD	n/a	wordpools/wordpool_EN.txt	SHEEP	11	18	[0, 0, 0]	n/a	0	1	0	n/a	n/a	0.0	0	0	0	FR2	2	R1177M
3007.554	1.6	1513165	WORD	n/a	wordpools/wordpool_EN.txt	SLUSH	12	18	[0, 0, 0]	n/a	0	1	0	n/a	n/a	0.0	0	0	0	FR2	2	R1177M
3009.171	0.001	1513973	DISTRACT_START	n/a	n/a	n/a	-999	18	[0, 0, 0]	n/a	0	1	0	n/a	n/a	0.0	0	0	0	FR2	2	R1177M
3009.172	0.016	1513974	START	n/a	n/a	n/a	-999	18	[-999, -999, -999]	n/a	0	1	0	n/a	n/a	0.0	0	0	0	FR2	2	R1177M
3009.188	8.751	1513982	PROB	8.727	n/a	n/a	-999	18	[4, 5, 4]	19	0	1	0	n/a	n/a	0.0	0	0	0	FR2	2	R1177M
3017.939	6.285	1518357	PROB	6.265	n/a	n/a	-999	18	[2, 5, 6]	12	0	1	0	n/a	n/a	0.0	0	0	0	FR2	2	R1177M
3024.224	10.386	1521499	PROB	10.386	n/a	n/a	-999	18	[9, 6, 2]	16	0	1	0	n/a	n/a	0.0	0	0	0	FR2	2	R1177M
3034.61	0.015	1526692	STOP	n/a	n/a	n/a	-999	18	[-999, -999, -999]	n/a	0	1	0	n/a	n/a	0.0	0	0	0	FR2	2	R1177M
3034.625	1.085	1526699	DISTRACT_END	n/a	n/a	n/a	-999	18	[0, 0, 0]	n/a	0	1	0	n/a	n/a	0.0	0	0	0	FR2	2	R1177M
3035.71	3.148	1527242	REC_START	n/a	n/a	n/a	-999	18	[0, 0, 0]	n/a	0	1	0	n/a	n/a	0.0	0	0	0	FR2	2	R1177M
3038.858	2.244	1528816	REC_WORD	3.148	n/a	LAND	-999	18	[0, 0, 0]	n/a	0	1	0	n/a	n/a	0.0	0	0	0	FR2	2	R1177M
3041.102	1.925	1529937	REC_WORD	5.392	n/a	LIP	-999	18	[0, 0, 0]	n/a	0	1	0	n/a	n/a	0.0	0	0	0	FR2	2	R1177M
3043.027	5.676	1530900	REC_WORD	7.317	n/a	BED	-999	18	[0, 0, 0]	n/a	0	1	0	n/a	n/a	0.0	0	0	0	FR2	2	R1177M
3048.703	11.251	1533738	REC_WORD	12.993	n/a	MOON	-999	18	[0, 0, 0]	n/a	0	1	0	n/a	n/a	0.0	0	0	0	FR2	2	R1177M
3059.954	4.652	1539363	REC_WORD	24.244	n/a	COUCH	-999	18	[0, 0, 0]	n/a	0	1	0	n/a	n/a	0.0	0	0	0	FR2	2	R1177M
3064.606	1.113	1541688	REC_WORD	28.896	n/a	ANT	-999	18	[0, 0, 0]	n/a	0	1	0	n/a	n/a	0.0	0	0	0	FR2	2	R1177M
3065.719	42.854	1542245	REC_END	n/a	n/a	n/a	-999	18	[0, 0, 0]	n/a	0	1	0	n/a	n/a	0.0	0	0	0	FR2	2	R1177M
3108.573	0.0	1563670	TRIAL	n/a	n/a	n/a	-999	19	[0, 0, 0]	n/a	0	1	0	n/a	n/a	0.0	0	0	0	FR2	2	R1177M
3108.573	10.0	1563670	COUNTDOWN_START	n/a	n/a	n/a	-999	19	[0, 0, 0]	n/a	0	1	0	n/a	n/a	0.0	0	0	0	FR2	2	R1177M
3119.001	0.007	1568884	COUNTDOWN_END	n/a	n/a	n/a	-999	19	[0, 0, 0]	n/a	0	1	0	n/a	n/a	0.0	0	0	0	FR2	2	R1177M
3119.008	1.6	1568887	ORIENT	n/a	n/a	n/a	-999	19	[0, 0, 0]	n/a	0	1	0	n/a	n/a	0.0	0	0	0	FR2	2	R1177M
3121.609	1.6	1570188	WORD	n/a	wordpools/wordpool_EN.txt	CHEEK	1	19	[0, 0, 0]	n/a	0	1	0	n/a	n/a	0.0	0	0	0	FR2	2	R1177M
3124.109	1.6	1571438	WORD	n/a	wordpools/wordpool_EN.txt	SCHOOL	2	19	[0, 0, 0]	n/a	0	1	0	n/a	n/a	0.0	0	0	0	FR2	2	R1177M
3126.356	4.6	1572561	STIM_ON	n/a	n/a	n/a	-999	19	[0, 0, 0]	n/a	1	1	4600	LG50	LG51	1000.0	50	230	300	FR2	2	R1177M
3126.561	1.6	1572663	WORD	n/a	wordpools/wordpool_EN.txt	HOOK	3	19	[0, 0, 0]	n/a	1	1	4600	LG50	LG51	1000.0	50	230	300	FR2	2	R1177M
3129.127	1.6	1573946	WORD	n/a	wordpools/wordpool_EN.txt	RIB	4	19	[0, 0, 0]	n/a	1	1	4600	LG50	LG51	1000.0	50	230	300	FR2	2	R1177M
3131.711	1.6	1575238	WORD	n/a	wordpools/wordpool_EN.txt	SAIL	5	19	[0, 0, 0]	n/a	0	1	0	n/a	n/a	0.0	0	0	0	FR2	2	R1177M
3134.179	1.6	1576472	WORD	n/a	wordpools/wordpool_EN.txt	SHOE	6	19	[0, 0, 0]	n/a	0	1	0	n/a	n/a	0.0	0	0	0	FR2	2	R1177M
3136.487	4.6	1577626	STIM_ON	n/a	n/a	n/a	-999	19	[0, 0, 0]	n/a	1	1	4600	LG50	LG51	1000.0	50	230	300	FR2	2	R1177M
3136.695	1.6	1577730	WORD	n/a	wordpools/wordpool_EN.txt	CROW	7	19	[0, 0, 0]	n/a	1	1	4600	LG50	LG51	1000.0	50	230	300	FR2	2	R1177M
3139.23	1.6	1578997	WORD	n/a	wordpools/wordpool_EN.txt	HEN	8	19	[0, 0, 0]	n/a	1	1	4600	LG50	LG51	1000.0	50	230	300	FR2	2	R1177M
3141.662	1.6	1580213	WORD	n/a	wordpools/wordpool_EN.txt	SLEEVE	9	19	[0, 0, 0]	n/a	0	1	0	n/a	n/a	0.0	0	0	0	FR2	2	R1177M
3144.13	1.6	1581447	WORD	n/a	wordpools/wordpool_EN.txt	POOL	10	19	[0, 0, 0]	n/a	0	1	0	n/a	n/a	0.0	0	0	0	FR2	2	R1177M
3146.326	4.6	1582545	STIM_ON	n/a	n/a	n/a	-999	19	[0, 0, 0]	n/a	1	1	4600	LG50	LG51	1000.0	50	230	300	FR2	2	R1177M
3146.531	1.6	1582648	WORD	n/a	wordpools/wordpool_EN.txt	ZOO	11	19	[0, 0, 0]	n/a	1	1	4600	LG50	LG51	1000.0	50	230	300	FR2	2	R1177M
3148.981	1.6	1583873	WORD	n/a	wordpools/wordpool_EN.txt	HAND	12	19	[0, 0, 0]	n/a	1	1	4600	LG50	LG51	1000.0	50	230	300	FR2	2	R1177M
3150.598	0.0	1584681	DISTRACT_START	n/a	n/a	n/a	-999	19	[0, 0, 0]	n/a	1	1	4600	LG50	LG51	1000.0	50	230	300	FR2	2	R1177M
3150.598	0.016	1584681	START	n/a	n/a	n/a	-999	19	[-999, -999, -999]	n/a	0	1	0	n/a	n/a	0.0	0	0	0	FR2	2	R1177M
3150.614	8.518	1584689	PROB	8.484	n/a	n/a	-999	19	[9, 5, 7]	19	0	1	0	n/a	n/a	0.0	0	0	0	FR2	2	R1177M
3159.132	12.766	1588948	PROB	12.766	n/a	n/a	-999	19	[5, 8, 2]	15	0	1	0	n/a	n/a	0.0	0	0	0	FR2	2	R1177M
3171.898	0.004	1595330	STOP	n/a	n/a	n/a	-999	19	[-999, -999, -999]	n/a	0	1	0	n/a	n/a	0.0	0	0	0	FR2	2	R1177M
3171.902	1.084	1595332	DISTRACT_END	n/a	n/a	n/a	-999	19	[0, 0, 0]	n/a	0	1	0	n/a	n/a	0.0	0	0	0	FR2	2	R1177M
3172.986	2.513	1595874	REC_START	n/a	n/a	n/a	-999	19	[0, 0, 0]	n/a	0	1	0	n/a	n/a	0.0	0	0	0	FR2	2	R1177M
3175.499	1.83	1597130	REC_WORD	2.513	n/a	SCHOOL	-999	19	[0, 0, 0]	n/a	0	1	0	n/a	n/a	0.0	0	0	0	FR2	2	R1177M
3177.329	1.284	1598045	REC_WORD	4.343	n/a	POOL	-999	19	[0, 0, 0]	n/a	0	1	0	n/a	n/a	0.0	0	0	0	FR2	2	R1177M
3178.613	5.815	1598687	REC_WORD	5.627	n/a	SLEEVE	-999	19	[0, 0, 0]	n/a	0	1	0	n/a	n/a	0.0	0	0	0	FR2	2	R1177M
3184.428	18.567	1601595	REC_WORD	11.442	n/a	SAIL	-999	19	[0, 0, 0]	n/a	0	1	0	n/a	n/a	0.0	0	0	0	FR2	2	R1177M
3202.995	4.747	1610877	REC_END	n/a	n/a	n/a	-999	19	[0, 0, 0]	n/a	0	1	0	n/a	n/a	0.0	0	0	0	FR2	2	R1177M
3207.742	0.0	1613251	TRIAL	n/a	n/a	n/a	-999	20	[0, 0, 0]	n/a	0	0	0	n/a	n/a	0.0	0	0	0	FR2	2	R1177M
3207.742	10.0	1613251	COUNTDOWN_START	n/a	n/a	n/a	-999	20	[0, 0, 0]	n/a	0	0	0	n/a	n/a	0.0	0	0	0	FR2	2	R1177M
3218.17	0.008	1618464	COUNTDOWN_END	n/a	n/a	n/a	-999	20	[0, 0, 0]	n/a	0	0	0	n/a	n/a	0.0	0	0	0	FR2	2	R1177M
3218.178	1.6	1618468	ORIENT	n/a	n/a	n/a	-999	20	[0, 0, 0]	n/a	0	0	0	n/a	n/a	0.0	0	0	0	FR2	2	R1177M
3220.728	1.6	1619743	WORD	n/a	wordpools/wordpool_EN.txt	GRAPE	1	20	[0, 0, 0]	n/a	0	0	0	n/a	n/a	0.0	0	0	0	FR2	2	R1177M
3223.196	1.6	1620977	WORD	n/a	wordpools/wordpool_EN.txt	SPONGE	2	20	[0, 0, 0]	n/a	0	0	0	n/a	n/a	0.0	0	0	0	FR2	2	R1177M
3225.662	1.6	1622210	WORD	n/a	wordpools/wordpool_EN.txt	TRAIN	3	20	[0, 0, 0]	n/a	0	0	0	n/a	n/a	0.0	0	0	0	FR2	2	R1177M
3228.164	1.6	1623461	WORD	n/a	wordpools/wordpool_EN.txt	CROWN	4	20	[0, 0, 0]	n/a	0	0	0	n/a	n/a	0.0	0	0	0	FR2	2	R1177M
3230.663	1.6	1624710	WORD	n/a	wordpools/wordpool_EN.txt	CONE	5	20	[0, 0, 0]	n/a	0	0	0	n/a	n/a	0.0	0	0	0	FR2	2	R1177M
3233.114	1.6	1625936	WORD	n/a	wordpools/wordpool_EN.txt	BATH	6	20	[0, 0, 0]	n/a	0	0	0	n/a	n/a	0.0	0	0	0	FR2	2	R1177M
3235.647	1.6	1627202	WORD	n/a	wordpools/wordpool_EN.txt	MULE	7	20	[0, 0, 0]	n/a	0	0	0	n/a	n/a	0.0	0	0	0	FR2	2	R1177M
3238.014	1.6	1628385	WORD	n/a	wordpools/wordpool_EN.txt	BOX	8	20	[0, 0, 0]	n/a	0	0	0	n/a	n/a	0.0	0	0	0	FR2	2	R1177M
3240.615	1.6	1629686	WORD	n/a	wordpools/wordpool_EN.txt	EGG	9	20	[0, 0, 0]	n/a	0	0	0	n/a	n/a	0.0	0	0	0	FR2	2	R1177M
3243.132	1.6	1630944	WORD	n/a	wordpools/wordpool_EN.txt	FRUIT	10	20	[0, 0, 0]	n/a	0	0	0	n/a	n/a	0.0	0	0	0	FR2	2	R1177M
3245.55	1.6	1632153	WORD	n/a	wordpools/wordpool_EN.txt	DOCK	11	20	[0, 0, 0]	n/a	0	0	0	n/a	n/a	0.0	0	0	0	FR2	2	R1177M
3248.066	1.6	1633411	WORD	n/a	wordpools/wordpool_EN.txt	APE	12	20	[0, 0, 0]	n/a	0	0	0	n/a	n/a	0.0	0	0	0	FR2	2	R1177M
3249.683	0.001	1634219	DISTRACT_START	n/a	n/a	n/a	-999	20	[0, 0, 0]	n/a	0	0	0	n/a	n/a	0.0	0	0	0	FR2	2	R1177M
3249.684	0.016	1634220	START	n/a	n/a	n/a	-999	20	[-999, -999, -999]	n/a	0	0	0	n/a	n/a	0.0	0	0	0	FR2	2	R1177M
3249.7	4.918	1634228	PROB	4.895	n/a	n/a	-999	20	[1, 4, 5]	10	0	0	0	n/a	n/a	0.0	0	0	0	FR2	2	R1177M
3254.618	25.586	1636687	PROB	25.586	n/a	n/a	-999	20	[9, 8, 9]	26	0	0	0	n/a	n/a	0.0	0	0	0	FR2	2	R1177M
3280.204	0.003	1649479	STOP	n/a	n/a	n/a	-999	20	[-999, -999, -999]	n/a	0	0	0	n/a	n/a	0.0	0	0	0	FR2	2	R1177M
3280.207	1.201	1649480	DISTRACT_END	n/a	n/a	n/a	-999	20	[0, 0, 0]	n/a	0	0	0	n/a	n/a	0.0	0	0	0	FR2	2	R1177M
3281.408	0.937	1650081	REC_START	n/a	n/a	n/a	-999	20	[0, 0, 0]	n/a	0	0	0	n/a	n/a	0.0	0	0	0	FR2	2	R1177M
3282.345	3.011	1650549	REC_WORD	0.937	n/a	GRAPE	-999	20	[0, 0, 0]	n/a	0	0	0	n/a	n/a	0.0	0	0	0	FR2	2	R1177M
3285.356	1.909	1652055	REC_WORD	3.948	n/a	MULE	-999	20	[0, 0, 0]	n/a	0	0	0	n/a	n/a	0.0	0	0	0	FR2	2	R1177M
3287.265	8.87	1653009	REC_WORD	5.857	n/a	DOCK	-999	20	[0, 0, 0]	n/a	0	0	0	n/a	n/a	0.0	0	0	0	FR2	2	R1177M
3296.135	8.02	1657444	REC_WORD	14.727	n/a	AXE	-999	20	[0, 0, 0]	n/a	0	0	0	n/a	n/a	0.0	0	0	0	FR2	2	R1177M
3304.155	7.262	1661453	REC_WORD_VV	22.747	n/a	<>	-999	20	[0, 0, 0]	n/a	0	0	0	n/a	n/a	0.0	0	0	0	FR2	2	R1177M
3311.417	61.108	1665084	REC_END	n/a	n/a	n/a	-999	20	[0, 0, 0]	n/a	0	0	0	n/a	n/a	0.0	0	0	0	FR2	2	R1177M
3372.525	0.0	1695635	TRIAL	n/a	n/a	n/a	-999	21	[0, 0, 0]	n/a	0	1	0	n/a	n/a	0.0	0	0	0	FR2	2	R1177M
3372.525	10.0	1695635	COUNTDOWN_START	n/a	n/a	n/a	-999	21	[0, 0, 0]	n/a	0	1	0	n/a	n/a	0.0	0	0	0	FR2	2	R1177M
3382.953	0.006	1700849	COUNTDOWN_END	n/a	n/a	n/a	-999	21	[0, 0, 0]	n/a	0	1	0	n/a	n/a	0.0	0	0	0	FR2	2	R1177M
3382.959	1.6	1700852	ORIENT	n/a	n/a	n/a	-999	21	[0, 0, 0]	n/a	0	1	0	n/a	n/a	0.0	0	0	0	FR2	2	R1177M
3385.235	4.6	1701990	STIM_ON	n/a	n/a	n/a	-999	21	[0, 0, 0]	n/a	1	1	4600	LG50	LG51	1000.0	50	230	300	FR2	2	R1177M
3385.444	1.6	1702094	WORD	n/a	wordpools/wordpool_EN.txt	FARM	1	21	[0, 0, 0]	n/a	1	1	4600	LG50	LG51	1000.0	50	230	300	FR2	2	R1177M
3387.86	1.6	1703302	WORD	n/a	wordpools/wordpool_EN.txt	FISH	2	21	[0, 0, 0]	n/a	1	1	4600	LG50	LG51	1000.0	50	230	300	FR2	2	R1177M
3390.228	1.6	1704486	WORD	n/a	wordpools/wordpool_EN.txt	PLANT	3	21	[0, 0, 0]	n/a	0	1	0	n/a	n/a	0.0	0	0	0	FR2	2	R1177M
3392.844	1.6	1705794	WORD	n/a	wordpools/wordpool_EN.txt	JAR	4	21	[0, 0, 0]	n/a	0	1	0	n/a	n/a	0.0	0	0	0	FR2	2	R1177M
3395.248	4.6	1706996	STIM_ON	n/a	n/a	n/a	-999	21	[0, 0, 0]	n/a	1	1	4600	LG50	LG51	1000.0	50	230	300	FR2	2	R1177M
3395.463	1.6	1707104	WORD	n/a	wordpools/wordpool_EN.txt	RICE	5	21	[0, 0, 0]	n/a	1	1	4600	LG50	LG51	1000.0	50	230	300	FR2	2	R1177M
3397.995	1.6	1708369	WORD	n/a	wordpools/wordpool_EN.txt	DESK	6	21	[0, 0, 0]	n/a	1	1	4600	LG50	LG51	1000.0	50	230	300	FR2	2	R1177M
3400.564	1.6	1709654	WORD	n/a	wordpools/wordpool_EN.txt	OAR	7	21	[0, 0, 0]	n/a	0	1	0	n/a	n/a	0.0	0	0	0	FR2	2	R1177M
3403.113	1.6	1710928	WORD	n/a	wordpools/wordpool_EN.txt	BROOM	8	21	[0, 0, 0]	n/a	0	1	0	n/a	n/a	0.0	0	0	0	FR2	2	R1177M
3405.369	4.6	1712056	STIM_ON	n/a	n/a	n/a	-999	21	[0, 0, 0]	n/a	1	1	4600	LG50	LG51	1000.0	50	230	300	FR2	2	R1177M
3405.58	1.6	1712162	WORD	n/a	wordpools/wordpool_EN.txt	CHALK	9	21	[0, 0, 0]	n/a	1	1	4600	LG50	LG51	1000.0	50	230	300	FR2	2	R1177M
3408.131	1.6	1713437	WORD	n/a	wordpools/wordpool_EN.txt	LAWN	10	21	[0, 0, 0]	n/a	1	1	4600	LG50	LG51	1000.0	50	230	300	FR2	2	R1177M
3410.648	1.6	1714695	WORD	n/a	wordpools/wordpool_EN.txt	GOAT	11	21	[0, 0, 0]	n/a	0	1	0	n/a	n/a	0.0	0	0	0	FR2	2	R1177M
3413.183	1.6	1715963	WORD	n/a	wordpools/wordpool_EN.txt	SALT	12	21	[0, 0, 0]	n/a	0	1	0	n/a	n/a	0.0	0	0	0	FR2	2	R1177M
3414.799	0.0	1716771	DISTRACT_START	n/a	n/a	n/a	-999	21	[0, 0, 0]	n/a	0	1	0	n/a	n/a	0.0	0	0	0	FR2	2	R1177M
3414.799	0.016	1716771	START	n/a	n/a	n/a	-999	21	[-999, -999, -999]	n/a	0	1	0	n/a	n/a	0.0	0	0	0	FR2	2	R1177M
3414.815	7.802	1716779	PROB	7.772	n/a	n/a	-999	21	[5, 3, 5]	14	0	1	0	n/a	n/a	0.0	0	0	0	FR2	2	R1177M
3422.617	10.985	1720679	PROB	10.961	n/a	n/a	-999	21	[9, 2, 8]	19	0	1	0	n/a	n/a	0.0	0	0	0	FR2	2	R1177M
3433.602	7.61	1726172	PROB	7.61	n/a	n/a	-999	21	[2, 4, 3]	8	0	1	0	n/a	n/a	0.0	0	0	0	FR2	2	R1177M
3441.212	0.009	1729976	STOP	n/a	n/a	n/a	-999	21	[-999, -999, -999]	n/a	0	1	0	n/a	n/a	0.0	0	0	0	FR2	2	R1177M
3441.221	1.168	1729981	DISTRACT_END	n/a	n/a	n/a	-999	21	[0, 0, 0]	n/a	0	1	0	n/a	n/a	0.0	0	0	0	FR2	2	R1177M
3442.389	1.651	1730565	REC_START	n/a	n/a	n/a	-999	21	[0, 0, 0]	n/a	0	1	0	n/a	n/a	0.0	0	0	0	FR2	2	R1177M
3444.04	1.984	1731390	REC_WORD	1.651	n/a	FARM	-999	21	[0, 0, 0]	n/a	0	1	0	n/a	n/a	0.0	0	0	0	FR2	2	R1177M
3446.024	3.784	1732382	REC_WORD	3.635	n/a	OAR	-999	21	[0, 0, 0]	n/a	0	1	0	n/a	n/a	0.0	0	0	0	FR2	2	R1177M
3449.808	6.223	1734274	REC_WORD	7.419	n/a	FISH	-999	21	[0, 0, 0]	n/a	0	1	0	n/a	n/a	0.0	0	0	0	FR2	2	R1177M
3456.031	5.932	1737385	REC_WORD	13.642	n/a	GOAT	-999	21	[0, 0, 0]	n/a	0	1	0	n/a	n/a	0.0	0	0	0	FR2	2	R1177M
3461.963	10.434	1740351	REC_WORD	19.574	n/a	PLANT	-999	21	[0, 0, 0]	n/a	0	1	0	n/a	n/a	0.0	0	0	0	FR2	2	R1177M
3472.397	11.149	1745567	REC_END	n/a	n/a	n/a	-999	21	[0, 0, 0]	n/a	0	1	0	n/a	n/a	0.0	0	0	0	FR2	2	R1177M
3483.546	0.0	1751141	TRIAL	n/a	n/a	n/a	-999	22	[0, 0, 0]	n/a	0	1	0	n/a	n/a	0.0	0	0	0	FR2	2	R1177M
3483.546	10.0	1751141	COUNTDOWN_START	n/a	n/a	n/a	-999	22	[0, 0, 0]	n/a	0	1	0	n/a	n/a	0.0	0	0	0	FR2	2	R1177M
3493.974	0.007	1756355	COUNTDOWN_END	n/a	n/a	n/a	-999	22	[0, 0, 0]	n/a	0	1	0	n/a	n/a	0.0	0	0	0	FR2	2	R1177M
3493.981	1.6	1756359	ORIENT	n/a	n/a	n/a	-999	22	[0, 0, 0]	n/a	0	1	0	n/a	n/a	0.0	0	0	0	FR2	2	R1177M
3496.449	1.6	1757592	WORD	n/a	wordpools/wordpool_EN.txt	FACE	1	22	[0, 0, 0]	n/a	0	1	0	n/a	n/a	0.0	0	0	0	FR2	2	R1177M
3498.882	1.6	1758809	WORD	n/a	wordpools/wordpool_EN.txt	PEARL	2	22	[0, 0, 0]	n/a	0	1	0	n/a	n/a	0.0	0	0	0	FR2	2	R1177M
3501.204	4.6	1759970	STIM_ON	n/a	n/a	n/a	-999	22	[0, 0, 0]	n/a	1	1	4600	LG50	LG51	1000.0	50	230	300	FR2	2	R1177M
3501.416	1.6	1760076	WORD	n/a	wordpools/wordpool_EN.txt	BEAN	3	22	[0, 0, 0]	n/a	1	1	4600	LG50	LG51	1000.0	50	230	300	FR2	2	R1177M
3503.816	1.6	1761276	WORD	n/a	wordpools/wordpool_EN.txt	BOMB	4	22	[0, 0, 0]	n/a	1	1	4600	LG50	LG51	1000.0	50	230	300	FR2	2	R1177M
3506.317	1.6	1762526	WORD	n/a	wordpools/wordpool_EN.txt	SOAP	5	22	[0, 0, 0]	n/a	0	1	0	n/a	n/a	0.0	0	0	0	FR2	2	R1177M
3508.75	1.6	1763742	WORD	n/a	wordpools/wordpool_EN.txt	WAVE	6	22	[0, 0, 0]	n/a	0	1	0	n/a	n/a	0.0	0	0	0	FR2	2	R1177M
3511.152	4.6	1764943	STIM_ON	n/a	n/a	n/a	-999	22	[0, 0, 0]	n/a	1	1	4600	LG50	LG51	1000.0	50	230	300	FR2	2	R1177M
3511.368	1.6	1765051	WORD	n/a	wordpools/wordpool_EN.txt	SMOKE	7	22	[0, 0, 0]	n/a	1	1	4600	LG50	LG51	1000.0	50	230	300	FR2	2	R1177M
3513.801	1.6	1766268	WORD	n/a	wordpools/wordpool_EN.txt	PASTE	8	22	[0, 0, 0]	n/a	1	1	4600	LG50	LG51	1000.0	50	230	300	FR2	2	R1177M
3516.286	1.6	1767510	WORD	n/a	wordpools/wordpool_EN.txt	PALM	9	22	[0, 0, 0]	n/a	0	1	0	n/a	n/a	0.0	0	0	0	FR2	2	R1177M
3518.669	1.6	1768702	WORD	n/a	wordpools/wordpool_EN.txt	CHIN	10	22	[0, 0, 0]	n/a	0	1	0	n/a	n/a	0.0	0	0	0	FR2	2	R1177M
3520.937	4.6	1769835	STIM_ON	n/a	n/a	n/a	-999	22	[0, 0, 0]	n/a	1	1	4600	LG50	LG51	1000.0	50	230	300	FR2	2	R1177M
3521.154	1.6	1769944	WORD	n/a	wordpools/wordpool_EN.txt	FUDGE	11	22	[0, 0, 0]	n/a	1	1	4600	LG50	LG51	1000.0	50	230	300	FR2	2	R1177M
3523.72	1.6	1771227	WORD	n/a	wordpools/wordpool_EN.txt	PET	12	22	[0, 0, 0]	n/a	1	1	4600	LG50	LG51	1000.0	50	230	300	FR2	2	R1177M
3525.338	0.001	1772036	DISTRACT_START	n/a	n/a	n/a	-999	22	[0, 0, 0]	n/a	1	1	4600	LG50	LG51	1000.0	50	230	300	FR2	2	R1177M
3525.339	0.015	1772036	START	n/a	n/a	n/a	-999	22	[-999, -999, -999]	n/a	0	1	0	n/a	n/a	0.0	0	0	0	FR2	2	R1177M
3525.354	9.718	1772044	PROB	9.688	n/a	n/a	-999	22	[2, 8, 2]	16	0	1	0	n/a	n/a	0.0	0	0	0	FR2	2	R1177M
3535.072	10.603	1776902	PROB	10.603	n/a	n/a	-999	22	[6, 3, 7]	15	0	1	0	n/a	n/a	0.0	0	0	0	FR2	2	R1177M
3545.675	0.016	1782203	STOP	n/a	n/a	n/a	-999	22	[-999, -999, -999]	n/a	0	1	0	n/a	n/a	0.0	0	0	0	FR2	2	R1177M
3545.691	1.184	1782211	DISTRACT_END	n/a	n/a	n/a	-999	22	[0, 0, 0]	n/a	0	1	0	n/a	n/a	0.0	0	0	0	FR2	2	R1177M
3546.875	2.082	1782803	REC_START	n/a	n/a	n/a	-999	22	[0, 0, 0]	n/a	0	1	0	n/a	n/a	0.0	0	0	0	FR2	2	R1177M
3548.957	18.118	1783844	REC_WORD	2.082	n/a	BEAN	-999	22	[0, 0, 0]	n/a	0	1	0	n/a	n/a	0.0	0	0	0	FR2	2	R1177M
3567.075	9.809	1792903	REC_WORD	20.2	n/a	CHIN	-999	22	[0, 0, 0]	n/a	0	1	0	n/a	n/a	0.0	0	0	0	FR2	2	R1177M
3576.884	13.915	1797807	REC_END	n/a	n/a	n/a	-999	22	[0, 0, 0]	n/a	0	1	0	n/a	n/a	0.0	0	0	0	FR2	2	R1177M
3590.799	0.0	1804764	TRIAL	n/a	n/a	n/a	-999	23	[0, 0, 0]	n/a	0	1	0	n/a	n/a	0.0	0	0	0	FR2	2	R1177M
3590.799	10.0	1804764	COUNTDOWN_START	n/a	n/a	n/a	-999	23	[0, 0, 0]	n/a	0	1	0	n/a	n/a	0.0	0	0	0	FR2	2	R1177M
