onset	duration	sample	trial_type	response_time	stim_file	item_name	serialpos	list	test	answer	stimulation	stim_list	stim_duration	anode_label	cathode_label	amplitude	pulse_freq	n_pulses	pulse_width	experiment	session	subject
0.0	30.907	337226	SESS_START	n/a	n/a	n/a	-999	-999	[0, 0, 0]	n/a	0	0	0	n/a	n/a	0.0	0	0	0	FR2	2	R1030J
30.907	10.0	368132	COUNTDOWN_START	n/a	n/a	n/a	-999	-999	[0, 0, 0]	n/a	0	0	0	n/a	n/a	0.0	0	0	0	FR2	2	R1030J
41.335	3.862	378560	COUNTDOWN_END	n/a	n/a	n/a	-999	-999	[0, 0, 0]	n/a	0	0	0	n/a	n/a	0.0	0	0	0	FR2	2	R1030J
45.197	1.6	382422	PRACTICE_WORD	n/a	n/a	CHEST	1	-1	[0, 0, 0]	n/a	0	0	0	n/a	n/a	0.0	0	0	0	FR2	2	R1030J
47.652	1.6	384877	PRACTICE_WORD	n/a	n/a	IRON	2	-1	[0, 0, 0]	n/a	0	0	0	n/a	n/a	0.0	0	0	0	FR2	2	R1030J
50.189	1.6	387414	PRACTICE_WORD	n/a	n/a	TONGUE	3	-1	[0, 0, 0]	n/a	0	0	0	n/a	n/a	0.0	0	0	0	FR2	2	R1030J
52.577	1.6	389802	PRACTICE_WORD	n/a	n/a	WAGON	4	-1	[0, 0, 0]	n/a	0	0	0	n/a	n/a	0.0	0	0	0	FR2	2	R1030J
55.047	1.6	392272	PRACTICE_WORD	n/a	n/a	CAMEL	5	-1	[0, 0, 0]	n/a	0	0	0	n/a	n/a	0.0	0	0	0	FR2	2	R1030J
57.569	1.6	394794	PRACTICE_WORD	n/a	n/a	COTTON	6	-1	[0, 0, 0]	n/a	0	0	0	n/a	n/a	0.0	0	0	0	FR2	2	R1030J
59.989	1.6	397214	PRACTICE_WORD	n/a	n/a	BEAM	7	-1	[0, 0, 0]	n/a	0	0	0	n/a	n/a	0.0	0	0	0	FR2	2	R1030J
62.426	1.6	399651	PRACTICE_WORD	n/a	n/a	RHINO	8	-1	[0, 0, 0]	n/a	0	0	0	n/a	n/a	0.0	0	0	0	FR2	2	R1030J
64.931	1.6	402156	PRACTICE_WORD	n/a	n/a	ATTIC	9	-1	[0, 0, 0]	n/a	0	0	0	n/a	n/a	0.0	0	0	0	FR2	2	R1030J
67.402	1.6	404627	PRACTICE_WORD	n/a	n/a	WATCH	10	-1	[0, 0, 0]	n/a	0	0	0	n/a	n/a	0.0	0	0	0	FR2	2	R1030J
69.889	1.6	407114	PRACTICE_WORD	n/a	n/a	FLOOD	11	-1	[0, 0, 0]	n/a	0	0	0	n/a	n/a	0.0	0	0	0	FR2	2	R1030J
72.41	1.6	409635	PRACTICE_WORD	n/a	n/a	RING	12	-1	[0, 0, 0]	n/a	0	0	0	n/a	n/a	0.0	0	0	0	FR2	2	R1030J
74.029	0.001	411254	PRACTICE_DISTRACT_START	n/a	n/a	n/a	-999	-1	[0, 0, 0]	n/a	0	0	0	n/a	n/a	0.0	0	0	0	FR2	2	R1030J
74.03	0.367	411255	START	n/a	n/a	n/a	-999	-1	[-999, -999, -999]	n/a	0	0	0	n/a	n/a	0.0	0	0	0	FR2	2	R1030J
74.397	2.838	411622	PROB	2.806	n/a	n/a	-999	-1	[2, 7, 9]	18	0	0	0	n/a	n/a	0.0	0	0	0	FR2	2	R1030J
77.235	3.522	414460	PROB	3.496	n/a	n/a	-999	-1	[2, 8, 5]	15	0	0	0	n/a	n/a	0.0	0	0	0	FR2	2	R1030J
80.757	3.289	417982	PROB	3.262	n/a	n/a	-999	-1	[9, 2, 8]	19	0	0	0	n/a	n/a	0.0	0	0	0	FR2	2	R1030J
84.046	5.042	421271	PROB	5.005	n/a	n/a	-999	-1	[9, 6, 8]	23	0	0	0	n/a	n/a	0.0	0	0	0	FR2	2	R1030J
89.088	2.287	426313	PROB	2.267	n/a	n/a	-999	-1	[5, 1, 4]	10	0	0	0	n/a	n/a	0.0	0	0	0	FR2	2	R1030J
91.375	2.604	428600	PROB	2.58	n/a	n/a	-999	-1	[5, 7, 7]	19	0	0	0	n/a	n/a	0.0	0	0	0	FR2	2	R1030J
93.979	2.408	431204	PROB	2.408	n/a	n/a	-999	-1	[2, 7, 3]	12	0	0	0	n/a	n/a	0.0	0	0	0	FR2	2	R1030J
96.387	0.013	433612	STOP	n/a	n/a	n/a	-999	-1	[-999, -999, -999]	n/a	0	0	0	n/a	n/a	0.0	0	0	0	FR2	2	R1030J
96.4	0.686	433625	PRACTICE_DISTRACT_END	n/a	n/a	n/a	-999	-1	[0, 0, 0]	n/a	0	0	0	n/a	n/a	0.0	0	0	0	FR2	2	R1030J
97.086	30.516	434311	PRACTICE_REC_START	n/a	n/a	n/a	-999	-1	[0, 0, 0]	n/a	0	0	0	n/a	n/a	0.0	0	0	0	FR2	2	R1030J
127.602	14.542	464827	PRACTICE_REC_END	n/a	n/a	n/a	-999	-1	[0, 0, 0]	n/a	0	0	0	n/a	n/a	0.0	0	0	0	FR2	2	R1030J
142.144	0.0	479368	TRIAL	n/a	n/a	n/a	-999	1	[0, 0, 0]	n/a	0	1	0	n/a	n/a	0.0	0	0	0	FR2	2	R1030J
142.144	10.0	479368	COUNTDOWN_START	n/a	n/a	n/a	-999	1	[0, 0, 0]	n/a	0	1	0	n/a	n/a	0.0	0	0	0	FR2	2	R1030J
152.572	0.006	489796	COUNTDOWN_END	n/a	n/a	n/a	-999	1	[0, 0, 0]	n/a	0	1	0	n/a	n/a	0.0	0	0	0	FR2	2	R1030J
152.578	1.6	489802	ORIENT	n/a	n/a	n/a	-999	1	[0, 0, 0]	n/a	0	1	0	n/a	n/a	0.0	0	0	0	FR2	2	R1030J
155.099	1.6	492323	WORD	n/a	wordpools/wordpool_EN.txt	TRAY	1	1	[0, 0, 0]	n/a	0	1	0	n/a	n/a	0.0	0	0	0	FR2	2	R1030J
157.653	1.6	494877	WORD	n/a	wordpools/wordpool_EN.txt	BREAD	2	1	[0, 0, 0]	n/a	0	1	0	n/a	n/a	0.0	0	0	0	FR2	2	R1030J
160.042	4.6	497266	STIM_ON	n/a	n/a	n/a	-999	1	[0, 0, 0]	n/a	1	1	4600	LQ1	LQ2	500.0	50	230	300	FR2	2	R1030J
160.258	1.6	497482	WORD	n/a	wordpools/wordpool_EN.txt	CORN	3	1	[0, 0, 0]	n/a	1	1	4600	LQ1	LQ2	500.0	50	230	300	FR2	2	R1030J
162.745	1.6	499969	WORD	n/a	wordpools/wordpool_EN.txt	SPARK	4	1	[0, 0, 0]	n/a	1	1	4600	LQ1	LQ2	500.0	50	230	300	FR2	2	R1030J
165.216	1.6	502440	WORD	n/a	wordpools/wordpool_EN.txt	TEA	5	1	[0, 0, 0]	n/a	0	1	0	n/a	n/a	0.0	0	0	0	FR2	2	R1030J
167.821	1.6	505045	WORD	n/a	wordpools/wordpool_EN.txt	GLOVE	6	1	[0, 0, 0]	n/a	0	1	0	n/a	n/a	0.0	0	0	0	FR2	2	R1030J
170.242	4.6	507466	STIM_ON	n/a	n/a	n/a	-999	1	[0, 0, 0]	n/a	1	1	4600	LQ1	LQ2	500.0	50	230	300	FR2	2	R1030J
170.459	1.6	507683	WORD	n/a	wordpools/wordpool_EN.txt	WEED	7	1	[0, 0, 0]	n/a	1	1	4600	LQ1	LQ2	500.0	50	230	300	FR2	2	R1030J
172.879	1.6	510103	WORD	n/a	wordpools/wordpool_EN.txt	WHEEL	8	1	[0, 0, 0]	n/a	1	1	4600	LQ1	LQ2	500.0	50	230	300	FR2	2	R1030J
175.35	1.6	512574	WORD	n/a	wordpools/wordpool_EN.txt	CLAY	9	1	[0, 0, 0]	n/a	0	1	0	n/a	n/a	0.0	0	0	0	FR2	2	R1030J
177.804	1.6	515028	WORD	n/a	wordpools/wordpool_EN.txt	CLOCK	10	1	[0, 0, 0]	n/a	0	1	0	n/a	n/a	0.0	0	0	0	FR2	2	R1030J
180.174	4.6	517398	STIM_ON	n/a	n/a	n/a	-999	1	[0, 0, 0]	n/a	1	1	4600	LQ1	LQ2	500.0	50	230	300	FR2	2	R1030J
180.392	1.6	517616	WORD	n/a	wordpools/wordpool_EN.txt	DUCK	11	1	[0, 0, 0]	n/a	1	1	4600	LQ1	LQ2	500.0	50	230	300	FR2	2	R1030J
182.796	1.6	520020	WORD	n/a	wordpools/wordpool_EN.txt	FOG	12	1	[0, 0, 0]	n/a	1	1	4600	LQ1	LQ2	500.0	50	230	300	FR2	2	R1030J
184.415	0.001	521639	DISTRACT_START	n/a	n/a	n/a	-999	1	[0, 0, 0]	n/a	1	1	4600	LQ1	LQ2	500.0	50	230	300	FR2	2	R1030J
184.416	0.016	521640	START	n/a	n/a	n/a	-999	1	[-999, -999, -999]	n/a	0	1	0	n/a	n/a	0.0	0	0	0	FR2	2	R1030J
184.432	3.739	521656	PROB	3.715	n/a	n/a	-999	1	[5, 6, 1]	12	0	1	0	n/a	n/a	0.0	0	0	0	FR2	2	R1030J
188.171	2.237	525395	PROB	2.2	n/a	n/a	-999	1	[1, 7, 7]	15	0	1	0	n/a	n/a	0.0	0	0	0	FR2	2	R1030J
190.408	2.171	527632	PROB	2.148	n/a	n/a	-999	1	[2, 4, 4]	10	0	1	0	n/a	n/a	0.0	0	0	0	FR2	2	R1030J
192.579	3.506	529803	PROB	3.48	n/a	n/a	-999	1	[2, 9, 4]	15	0	1	0	n/a	n/a	0.0	0	0	0	FR2	2	R1030J
196.085	2.187	533309	PROB	2.158	n/a	n/a	-999	1	[6, 7, 3]	16	0	1	0	n/a	n/a	0.0	0	0	0	FR2	2	R1030J
198.272	2.17	535496	PROB	2.139	n/a	n/a	-999	1	[6, 6, 1]	13	0	1	0	n/a	n/a	0.0	0	0	0	FR2	2	R1030J
200.442	2.588	537666	PROB	2.553	n/a	n/a	-999	1	[4, 5, 5]	14	0	1	0	n/a	n/a	0.0	0	0	0	FR2	2	R1030J
203.03	2.526	540254	PROB	2.526	n/a	n/a	-999	1	[1, 5, 7]	13	0	1	0	n/a	n/a	0.0	0	0	0	FR2	2	R1030J
205.556	0.012	542780	STOP	n/a	n/a	n/a	-999	1	[-999, -999, -999]	n/a	0	1	0	n/a	n/a	0.0	0	0	0	FR2	2	R1030J
205.568	1.423	542792	DISTRACT_END	n/a	n/a	n/a	-999	1	[0, 0, 0]	n/a	0	1	0	n/a	n/a	0.0	0	0	0	FR2	2	R1030J
206.991	1.381	544215	REC_START	n/a	n/a	n/a	-999	1	[0, 0, 0]	n/a	0	1	0	n/a	n/a	0.0	0	0	0	FR2	2	R1030J
208.372	1.619	545596	REC_WORD	1.381	n/a	SPARK	-999	1	[0, 0, 0]	n/a	0	1	0	n/a	n/a	0.0	0	0	0	FR2	2	R1030J
209.991	1.236	547215	REC_WORD	3.0	n/a	WEED	-999	1	[0, 0, 0]	n/a	0	1	0	n/a	n/a	0.0	0	0	0	FR2	2	R1030J
211.227	2.164	548451	REC_WORD	4.236	n/a	WHEEL	-999	1	[0, 0, 0]	n/a	0	1	0	n/a	n/a	0.0	0	0	0	FR2	2	R1030J
213.391	2.164	550615	REC_WORD	6.4	n/a	GLOVE	-999	1	[0, 0, 0]	n/a	0	1	0	n/a	n/a	0.0	0	0	0	FR2	2	R1030J
215.555	11.805	552779	REC_WORD	8.564	n/a	DUCK	-999	1	[0, 0, 0]	n/a	0	1	0	n/a	n/a	0.0	0	0	0	FR2	2	R1030J
227.36	0.509	564583	REC_WORD_VV	20.369	n/a	<>	-999	1	[0, 0, 0]	n/a	0	1	0	n/a	n/a	0.0	0	0	0	FR2	2	R1030J
227.869	1.912	565092	REC_WORD	20.878	n/a	WAGON	-999	1	[0, 0, 0]	n/a	0	1	0	n/a	n/a	0.0	0	0	0	FR2	2	R1030J
229.781	6.867	567004	REC_WORD	22.79	n/a	SPARK	-999	1	[0, 0, 0]	n/a	0	1	0	n/a	n/a	0.0	0	0	0	FR2	2	R1030J
236.648	4.078	573871	REC_END	n/a	n/a	n/a	-999	1	[0, 0, 0]	n/a	0	1	0	n/a	n/a	0.0	0	0	0	FR2	2	R1030J
240.726	10.0	577949	COUNTDOWN_START	n/a	n/a	n/a	-999	2	[0, 0, 0]	n/a	0	0	0	n/a	n/a	0.0	0	0	0	FR2	2	R1030J
240.727	10.427	577950	TRIAL	n/a	n/a	n/a	-999	2	[0, 0, 0]	n/a	0	0	0	n/a	n/a	0.0	0	0	0	FR2	2	R1030J
251.154	0.007	588377	COUNTDOWN_END	n/a	n/a	n/a	-999	2	[0, 0, 0]	n/a	0	0	0	n/a	n/a	0.0	0	0	0	FR2	2	R1030J
251.161	1.6	588384	ORIENT	n/a	n/a	n/a	-999	2	[0, 0, 0]	n/a	0	0	0	n/a	n/a	0.0	0	0	0	FR2	2	R1030J
253.765	1.6	590988	WORD	n/a	wordpools/wordpool_EN.txt	GRAPE	1	2	[0, 0, 0]	n/a	0	0	0	n/a	n/a	0.0	0	0	0	FR2	2	R1030J
256.236	1.6	593459	WORD	n/a	wordpools/wordpool_EN.txt	SPONGE	2	2	[0, 0, 0]	n/a	0	0	0	n/a	n/a	0.0	0	0	0	FR2	2	R1030J
258.857	1.6	596080	WORD	n/a	wordpools/wordpool_EN.txt	TRAIN	3	2	[0, 0, 0]	n/a	0	0	0	n/a	n/a	0.0	0	0	0	FR2	2	R1030J
261.395	1.6	598618	WORD	n/a	wordpools/wordpool_EN.txt	CROWN	4	2	[0, 0, 0]	n/a	0	0	0	n/a	n/a	0.0	0	0	0	FR2	2	R1030J
263.932	1.6	601155	WORD	n/a	wordpools/wordpool_EN.txt	CONE	5	2	[0, 0, 0]	n/a	0	0	0	n/a	n/a	0.0	0	0	0	FR2	2	R1030J
266.37	1.6	603593	WORD	n/a	wordpools/wordpool_EN.txt	BATH	6	2	[0, 0, 0]	n/a	0	0	0	n/a	n/a	0.0	0	0	0	FR2	2	R1030J
268.791	1.6	606014	WORD	n/a	wordpools/wordpool_EN.txt	MULE	7	2	[0, 0, 0]	n/a	0	0	0	n/a	n/a	0.0	0	0	0	FR2	2	R1030J
271.244	1.6	608467	WORD	n/a	wordpools/wordpool_EN.txt	BOX	8	2	[0, 0, 0]	n/a	0	0	0	n/a	n/a	0.0	0	0	0	FR2	2	R1030J
273.865	1.6	611088	WORD	n/a	wordpools/wordpool_EN.txt	EGG	9	2	[0, 0, 0]	n/a	0	0	0	n/a	n/a	0.0	0	0	0	FR2	2	R1030J
276.42	1.6	613643	WORD	n/a	wordpools/wordpool_EN.txt	FRUIT	10	2	[0, 0, 0]	n/a	0	0	0	n/a	n/a	0.0	0	0	0	FR2	2	R1030J
278.924	1.6	616147	WORD	n/a	wordpools/wordpool_EN.txt	DOCK	11	2	[0, 0, 0]	n/a	0	0	0	n/a	n/a	0.0	0	0	0	FR2	2	R1030J
281.378	1.6	618601	WORD	n/a	wordpools/wordpool_EN.txt	APE	12	2	[0, 0, 0]	n/a	0	0	0	n/a	n/a	0.0	0	0	0	FR2	2	R1030J
282.998	0.0	620221	DISTRACT_START	n/a	n/a	n/a	-999	2	[0, 0, 0]	n/a	0	0	0	n/a	n/a	0.0	0	0	0	FR2	2	R1030J
282.998	0.016	620221	START	n/a	n/a	n/a	-999	2	[-999, -999, -999]	n/a	0	0	0	n/a	n/a	0.0	0	0	0	FR2	2	R1030J
283.014	2.605	620237	PROB	2.573	n/a	n/a	-999	2	[6, 6, 1]	13	0	0	0	n/a	n/a	0.0	0	0	0	FR2	2	R1030J
285.619	3.472	622842	PROB	3.44	n/a	n/a	-999	2	[7, 9, 1]	17	0	0	0	n/a	n/a	0.0	0	0	0	FR2	2	R1030J
289.091	2.554	626314	PROB	2.52	n/a	n/a	-999	2	[2, 1, 4]	7	0	0	0	n/a	n/a	0.0	0	0	0	FR2	2	R1030J
291.645	5.293	628868	PROB	5.262	n/a	n/a	-999	2	[2, 6, 9]	17	0	0	0	n/a	n/a	0.0	0	0	0	FR2	2	R1030J
296.938	3.188	634161	PROB	3.161	n/a	n/a	-999	2	[6, 9, 6]	21	0	0	0	n/a	n/a	0.0	0	0	0	FR2	2	R1030J
300.126	3.645	637349	PROB	3.645	n/a	n/a	-999	2	[9, 8, 7]	24	0	0	0	n/a	n/a	0.0	0	0	0	FR2	2	R1030J
303.771	0.012	640994	STOP	n/a	n/a	n/a	-999	2	[-999, -999, -999]	n/a	0	0	0	n/a	n/a	0.0	0	0	0	FR2	2	R1030J
303.783	1.119	641006	DISTRACT_END	n/a	n/a	n/a	-999	2	[0, 0, 0]	n/a	0	0	0	n/a	n/a	0.0	0	0	0	FR2	2	R1030J
304.902	2.752	642125	REC_START	n/a	n/a	n/a	-999	2	[0, 0, 0]	n/a	0	0	0	n/a	n/a	0.0	0	0	0	FR2	2	R1030J
307.654	7.215	644877	REC_WORD	2.752	n/a	APE	-999	2	[0, 0, 0]	n/a	0	0	0	n/a	n/a	0.0	0	0	0	FR2	2	R1030J
314.869	5.811	652092	REC_WORD_VV	9.967	n/a	<>	-999	2	[0, 0, 0]	n/a	0	0	0	n/a	n/a	0.0	0	0	0	FR2	2	R1030J
320.68	1.48	657903	REC_WORD_VV	15.778	n/a	<>	-999	2	[0, 0, 0]	n/a	0	0	0	n/a	n/a	0.0	0	0	0	FR2	2	R1030J
322.16	3.375	659383	REC_WORD	17.258	n/a	WATCH	-999	2	[0, 0, 0]	n/a	0	0	0	n/a	n/a	0.0	0	0	0	FR2	2	R1030J
325.535	7.967	662757	REC_WORD	20.633	n/a	BEAN	-999	2	[0, 0, 0]	n/a	0	0	0	n/a	n/a	0.0	0	0	0	FR2	2	R1030J
333.502	1.413	670724	REC_WORD	28.6	n/a	FLOOD	-999	2	[0, 0, 0]	n/a	0	0	0	n/a	n/a	0.0	0	0	0	FR2	2	R1030J
334.915	2.808	672137	REC_END	n/a	n/a	n/a	-999	2	[0, 0, 0]	n/a	0	0	0	n/a	n/a	0.0	0	0	0	FR2	2	R1030J
337.723	0.0	674945	TRIAL	n/a	n/a	n/a	-999	3	[0, 0, 0]	n/a	0	0	0	n/a	n/a	0.0	0	0	0	FR2	2	R1030J
337.723	10.0	674945	COUNTDOWN_START	n/a	n/a	n/a	-999	3	[0, 0, 0]	n/a	0	0	0	n/a	n/a	0.0	0	0	0	FR2	2	R1030J
348.151	0.006	685373	COUNTDOWN_END	n/a	n/a	n/a	-999	3	[0, 0, 0]	n/a	0	0	0	n/a	n/a	0.0	0	0	0	FR2	2	R1030J
348.157	1.6	685379	ORIENT	n/a	n/a	n/a	-999	3	[0, 0, 0]	n/a	0	0	0	n/a	n/a	0.0	0	0	0	FR2	2	R1030J
350.695	1.6	687917	WORD	n/a	wordpools/wordpool_EN.txt	KEY	1	3	[0, 0, 0]	n/a	0	0	0	n/a	n/a	0.0	0	0	0	FR2	2	R1030J
353.266	1.6	690488	WORD	n/a	wordpools/wordpool_EN.txt	TIE	2	3	[0, 0, 0]	n/a	0	0	0	n/a	n/a	0.0	0	0	0	FR2	2	R1030J
355.87	1.6	693092	WORD	n/a	wordpools/wordpool_EN.txt	STAR	3	3	[0, 0, 0]	n/a	0	0	0	n/a	n/a	0.0	0	0	0	FR2	2	R1030J
358.441	1.6	695663	WORD	n/a	wordpools/wordpool_EN.txt	FILM	4	3	[0, 0, 0]	n/a	0	0	0	n/a	n/a	0.0	0	0	0	FR2	2	R1030J
360.912	1.6	698134	WORD	n/a	wordpools/wordpool_EN.txt	BUSH	5	3	[0, 0, 0]	n/a	0	0	0	n/a	n/a	0.0	0	0	0	FR2	2	R1030J
363.534	1.6	700756	WORD	n/a	wordpools/wordpool_EN.txt	GRASS	6	3	[0, 0, 0]	n/a	0	0	0	n/a	n/a	0.0	0	0	0	FR2	2	R1030J
366.137	1.6	703359	WORD	n/a	wordpools/wordpool_EN.txt	BLUSH	7	3	[0, 0, 0]	n/a	0	0	0	n/a	n/a	0.0	0	0	0	FR2	2	R1030J
368.675	1.6	705897	WORD	n/a	wordpools/wordpool_EN.txt	BIRD	8	3	[0, 0, 0]	n/a	0	0	0	n/a	n/a	0.0	0	0	0	FR2	2	R1030J
371.263	1.6	708485	WORD	n/a	wordpools/wordpool_EN.txt	DRESS	9	3	[0, 0, 0]	n/a	0	0	0	n/a	n/a	0.0	0	0	0	FR2	2	R1030J
373.85	1.6	711072	WORD	n/a	wordpools/wordpool_EN.txt	BOAT	10	3	[0, 0, 0]	n/a	0	0	0	n/a	n/a	0.0	0	0	0	FR2	2	R1030J
376.422	1.6	713644	WORD	n/a	wordpools/wordpool_EN.txt	FUR	11	3	[0, 0, 0]	n/a	0	0	0	n/a	n/a	0.0	0	0	0	FR2	2	R1030J
379.009	1.6	716231	WORD	n/a	wordpools/wordpool_EN.txt	FAN	12	3	[0, 0, 0]	n/a	0	0	0	n/a	n/a	0.0	0	0	0	FR2	2	R1030J
380.628	0.001	717850	DISTRACT_START	n/a	n/a	n/a	-999	3	[0, 0, 0]	n/a	0	0	0	n/a	n/a	0.0	0	0	0	FR2	2	R1030J
380.629	0.016	717851	START	n/a	n/a	n/a	-999	3	[-999, -999, -999]	n/a	0	0	0	n/a	n/a	0.0	0	0	0	FR2	2	R1030J
380.645	3.089	717867	PROB	3.054	n/a	n/a	-999	3	[6, 3, 5]	14	0	0	0	n/a	n/a	0.0	0	0	0	FR2	2	R1030J
383.734	2.805	720956	PROB	2.782	n/a	n/a	-999	3	[4, 5, 6]	15	0	0	0	n/a	n/a	0.0	0	0	0	FR2	2	R1030J
386.539	2.303	723761	PROB	2.28	n/a	n/a	-999	3	[3, 2, 1]	6	0	0	0	n/a	n/a	0.0	0	0	0	FR2	2	R1030J
388.842	4.191	726064	PROB	4.153	n/a	n/a	-999	3	[1, 9, 5]	15	0	0	0	n/a	n/a	0.0	0	0	0	FR2	2	R1030J
393.033	2.253	730255	PROB	2.234	n/a	n/a	-999	3	[5, 5, 5]	15	0	0	0	n/a	n/a	0.0	0	0	0	FR2	2	R1030J
395.286	2.338	732508	PROB	2.309	n/a	n/a	-999	3	[2, 3, 5]	10	0	0	0	n/a	n/a	0.0	0	0	0	FR2	2	R1030J
397.624	3.779	734846	PROB	3.779	n/a	n/a	-999	3	[4, 9, 5]	18	0	0	0	n/a	n/a	0.0	0	0	0	FR2	2	R1030J
401.403	0.011	738625	STOP	n/a	n/a	n/a	-999	3	[-999, -999, -999]	n/a	0	0	0	n/a	n/a	0.0	0	0	0	FR2	2	R1030J
401.414	1.202	738636	DISTRACT_END	n/a	n/a	n/a	-999	3	[0, 0, 0]	n/a	0	0	0	n/a	n/a	0.0	0	0	0	FR2	2	R1030J
402.616	1.309	739838	REC_START	n/a	n/a	n/a	-999	3	[0, 0, 0]	n/a	0	0	0	n/a	n/a	0.0	0	0	0	FR2	2	R1030J
403.925	2.091	741147	REC_WORD_VV	1.309	n/a	<>	-999	3	[0, 0, 0]	n/a	0	0	0	n/a	n/a	0.0	0	0	0	FR2	2	R1030J
406.016	1.156	743238	REC_WORD	3.4	n/a	BRUSH	-999	3	[0, 0, 0]	n/a	0	0	0	n/a	n/a	0.0	0	0	0	FR2	2	R1030J
407.172	4.164	744394	REC_WORD	4.556	n/a	STAR	-999	3	[0, 0, 0]	n/a	0	0	0	n/a	n/a	0.0	0	0	0	FR2	2	R1030J
411.336	1.53	748558	REC_WORD	8.72	n/a	WHEEL	-999	3	[0, 0, 0]	n/a	0	0	0	n/a	n/a	0.0	0	0	0	FR2	2	R1030J
412.866	3.415	750088	REC_WORD	10.25	n/a	FOG	-999	3	[0, 0, 0]	n/a	0	0	0	n/a	n/a	0.0	0	0	0	FR2	2	R1030J
416.281	3.828	753503	REC_WORD	13.665	n/a	FUR	-999	3	[0, 0, 0]	n/a	0	0	0	n/a	n/a	0.0	0	0	0	FR2	2	R1030J
420.109	2.96	757331	REC_WORD	17.493	n/a	BOAT	-999	3	[0, 0, 0]	n/a	0	0	0	n/a	n/a	0.0	0	0	0	FR2	2	R1030J
423.069	9.408	760290	REC_WORD	20.453	n/a	DRESS	-999	3	[0, 0, 0]	n/a	0	0	0	n/a	n/a	0.0	0	0	0	FR2	2	R1030J
432.477	0.159	769698	REC_WORD_VV	29.861	n/a	<>	-999	3	[0, 0, 0]	n/a	0	0	0	n/a	n/a	0.0	0	0	0	FR2	2	R1030J
432.636	2.467	769857	REC_END	n/a	n/a	n/a	-999	3	[0, 0, 0]	n/a	0	0	0	n/a	n/a	0.0	0	0	0	FR2	2	R1030J
435.103	10.0	772324	COUNTDOWN_START	n/a	n/a	n/a	-999	4	[0, 0, 0]	n/a	0	0	0	n/a	n/a	0.0	0	0	0	FR2	2	R1030J
435.104	10.427	772325	TRIAL	n/a	n/a	n/a	-999	4	[0, 0, 0]	n/a	0	0	0	n/a	n/a	0.0	0	0	0	FR2	2	R1030J
445.531	0.008	782752	COUNTDOWN_END	n/a	n/a	n/a	-999	4	[0, 0, 0]	n/a	0	0	0	n/a	n/a	0.0	0	0	0	FR2	2	R1030J
445.539	1.6	782760	ORIENT	n/a	n/a	n/a	-999	4	[0, 0, 0]	n/a	0	0	0	n/a	n/a	0.0	0	0	0	FR2	2	R1030J
447.992	1.6	785213	WORD	n/a	wordpools/wordpool_EN.txt	WORM	1	4	[0, 0, 0]	n/a	0	0	0	n/a	n/a	0.0	0	0	0	FR2	2	R1030J
450.596	1.6	787817	WORD	n/a	wordpools/wordpool_EN.txt	TANK	2	4	[0, 0, 0]	n/a	0	0	0	n/a	n/a	0.0	0	0	0	FR2	2	R1030J
452.984	1.6	790205	WORD	n/a	wordpools/wordpool_EN.txt	SHELL	3	4	[0, 0, 0]	n/a	0	0	0	n/a	n/a	0.0	0	0	0	FR2	2	R1030J
455.489	1.6	792710	WORD	n/a	wordpools/wordpool_EN.txt	POND	4	4	[0, 0, 0]	n/a	0	0	0	n/a	n/a	0.0	0	0	0	FR2	2	R1030J
457.992	1.6	795213	WORD	n/a	wordpools/wordpool_EN.txt	BRANCH	5	4	[0, 0, 0]	n/a	0	0	0	n/a	n/a	0.0	0	0	0	FR2	2	R1030J
460.43	1.6	797651	WORD	n/a	wordpools/wordpool_EN.txt	TREE	6	4	[0, 0, 0]	n/a	0	0	0	n/a	n/a	0.0	0	0	0	FR2	2	R1030J
462.984	1.6	800205	WORD	n/a	wordpools/wordpool_EN.txt	FLUTE	7	4	[0, 0, 0]	n/a	0	0	0	n/a	n/a	0.0	0	0	0	FR2	2	R1030J
465.489	1.6	802710	WORD	n/a	wordpools/wordpool_EN.txt	CAKE	8	4	[0, 0, 0]	n/a	0	0	0	n/a	n/a	0.0	0	0	0	FR2	2	R1030J
468.009	1.6	805230	WORD	n/a	wordpools/wordpool_EN.txt	STEM	9	4	[0, 0, 0]	n/a	0	0	0	n/a	n/a	0.0	0	0	0	FR2	2	R1030J
470.447	1.6	807668	WORD	n/a	wordpools/wordpool_EN.txt	DOLL	10	4	[0, 0, 0]	n/a	0	0	0	n/a	n/a	0.0	0	0	0	FR2	2	R1030J
473.067	1.6	810288	WORD	n/a	wordpools/wordpool_EN.txt	ROOT	11	4	[0, 0, 0]	n/a	0	0	0	n/a	n/a	0.0	0	0	0	FR2	2	R1030J
475.622	1.6	812843	WORD	n/a	wordpools/wordpool_EN.txt	RAIN	12	4	[0, 0, 0]	n/a	0	0	0	n/a	n/a	0.0	0	0	0	FR2	2	R1030J
477.241	0.001	814462	DISTRACT_START	n/a	n/a	n/a	-999	4	[0, 0, 0]	n/a	0	0	0	n/a	n/a	0.0	0	0	0	FR2	2	R1030J
477.242	0.016	814463	START	n/a	n/a	n/a	-999	4	[-999, -999, -999]	n/a	0	0	0	n/a	n/a	0.0	0	0	0	FR2	2	R1030J
477.258	2.855	814479	PROB	2.825	n/a	n/a	-999	4	[5, 6, 1]	12	0	0	0	n/a	n/a	0.0	0	0	0	FR2	2	R1030J
480.113	2.587	817334	PROB	2.562	n/a	n/a	-999	4	[5, 4, 6]	15	0	0	0	n/a	n/a	0.0	0	0	0	FR2	2	R1030J
482.7	2.789	819921	PROB	2.76	n/a	n/a	-999	4	[6, 5, 2]	13	0	0	0	n/a	n/a	0.0	0	0	0	FR2	2	R1030J
485.489	2.687	822710	PROB	2.666	n/a	n/a	-999	4	[5, 6, 2]	13	0	0	0	n/a	n/a	0.0	0	0	0	FR2	2	R1030J
488.176	2.788	825397	PROB	2.754	n/a	n/a	-999	4	[2, 7, 8]	17	0	0	0	n/a	n/a	0.0	0	0	0	FR2	2	R1030J
490.964	3.339	828185	PROB	3.303	n/a	n/a	-999	4	[6, 5, 3]	14	0	0	0	n/a	n/a	0.0	0	0	0	FR2	2	R1030J
494.303	3.42	831524	PROB	3.42	n/a	n/a	-999	4	[5, 8, 2]	15	0	0	0	n/a	n/a	0.0	0	0	0	FR2	2	R1030J
497.723	0.019	834944	STOP	n/a	n/a	n/a	-999	4	[-999, -999, -999]	n/a	0	0	0	n/a	n/a	0.0	0	0	0	FR2	2	R1030J
497.742	1.153	834963	DISTRACT_END	n/a	n/a	n/a	-999	4	[0, 0, 0]	n/a	0	0	0	n/a	n/a	0.0	0	0	0	FR2	2	R1030J
498.895	1.067	836116	REC_START	n/a	n/a	n/a	-999	4	[0, 0, 0]	n/a	0	0	0	n/a	n/a	0.0	0	0	0	FR2	2	R1030J
499.962	3.887	837183	REC_WORD_VV	1.067	n/a	<>	-999	4	[0, 0, 0]	n/a	0	0	0	n/a	n/a	0.0	0	0	0	FR2	2	R1030J
503.849	2.673	841070	REC_WORD_VV	4.954	n/a	<>	-999	4	[0, 0, 0]	n/a	0	0	0	n/a	n/a	0.0	0	0	0	FR2	2	R1030J
506.522	3.897	843743	REC_WORD	7.627	n/a	FLUTE	-999	4	[0, 0, 0]	n/a	0	0	0	n/a	n/a	0.0	0	0	0	FR2	2	R1030J
510.419	9.152	847640	REC_WORD	11.524	n/a	BLUSH	-999	4	[0, 0, 0]	n/a	0	0	0	n/a	n/a	0.0	0	0	0	FR2	2	R1030J
519.571	9.338	856791	REC_WORD	20.676	n/a	CLOUD	-999	4	[0, 0, 0]	n/a	0	0	0	n/a	n/a	0.0	0	0	0	FR2	2	R1030J
528.909	2.056	866129	REC_END	n/a	n/a	n/a	-999	4	[0, 0, 0]	n/a	0	0	0	n/a	n/a	0.0	0	0	0	FR2	2	R1030J
530.965	0.0	868185	TRIAL	n/a	n/a	n/a	-999	5	[0, 0, 0]	n/a	0	1	0	n/a	n/a	0.0	0	0	0	FR2	2	R1030J
530.965	10.0	868185	COUNTDOWN_START	n/a	n/a	n/a	-999	5	[0, 0, 0]	n/a	0	1	0	n/a	n/a	0.0	0	0	0	FR2	2	R1030J
541.393	0.006	878613	COUNTDOWN_END	n/a	n/a	n/a	-999	5	[0, 0, 0]	n/a	0	1	0	n/a	n/a	0.0	0	0	0	FR2	2	R1030J
541.399	1.6	878619	ORIENT	n/a	n/a	n/a	-999	5	[0, 0, 0]	n/a	0	1	0	n/a	n/a	0.0	0	0	0	FR2	2	R1030J
543.662	4.6	880882	STIM_ON	n/a	n/a	n/a	-999	5	[0, 0, 0]	n/a	1	1	4600	LQ1	LQ2	500.0	50	230	300	FR2	2	R1030J
543.87	1.6	881090	WORD	n/a	wordpools/wordpool_EN.txt	FARM	1	5	[0, 0, 0]	n/a	1	1	4600	LQ1	LQ2	500.0	50	230	300	FR2	2	R1030J
546.408	1.6	883628	WORD	n/a	wordpools/wordpool_EN.txt	FISH	2	5	[0, 0, 0]	n/a	1	1	4600	LQ1	LQ2	500.0	50	230	300	FR2	2	R1030J
548.945	1.6	886165	WORD	n/a	wordpools/wordpool_EN.txt	PLANT	3	5	[0, 0, 0]	n/a	0	1	0	n/a	n/a	0.0	0	0	0	FR2	2	R1030J
551.55	1.6	888770	WORD	n/a	wordpools/wordpool_EN.txt	JAR	4	5	[0, 0, 0]	n/a	0	1	0	n/a	n/a	0.0	0	0	0	FR2	2	R1030J
553.958	4.6	891178	STIM_ON	n/a	n/a	n/a	-999	5	[0, 0, 0]	n/a	1	1	4600	LQ1	LQ2	500.0	50	230	300	FR2	2	R1030J
554.171	1.6	891391	WORD	n/a	wordpools/wordpool_EN.txt	RICE	5	5	[0, 0, 0]	n/a	1	1	4600	LQ1	LQ2	500.0	50	230	300	FR2	2	R1030J
556.708	1.6	893928	WORD	n/a	wordpools/wordpool_EN.txt	DESK	6	5	[0, 0, 0]	n/a	1	1	4600	LQ1	LQ2	500.0	50	230	300	FR2	2	R1030J
559.296	1.6	896516	WORD	n/a	wordpools/wordpool_EN.txt	OAR	7	5	[0, 0, 0]	n/a	0	1	0	n/a	n/a	0.0	0	0	0	FR2	2	R1030J
561.817	1.6	899037	WORD	n/a	wordpools/wordpool_EN.txt	BROOM	8	5	[0, 0, 0]	n/a	0	1	0	n/a	n/a	0.0	0	0	0	FR2	2	R1030J
564.197	4.6	901417	STIM_ON	n/a	n/a	n/a	-999	5	[0, 0, 0]	n/a	1	1	4600	LQ1	LQ2	500.0	50	230	300	FR2	2	R1030J
564.405	1.6	901625	WORD	n/a	wordpools/wordpool_EN.txt	CHALK	9	5	[0, 0, 0]	n/a	1	1	4600	LQ1	LQ2	500.0	50	230	300	FR2	2	R1030J
567.026	1.6	904246	WORD	n/a	wordpools/wordpool_EN.txt	LAWN	10	5	[0, 0, 0]	n/a	1	1	4600	LQ1	LQ2	500.0	50	230	300	FR2	2	R1030J
569.63	1.6	906850	WORD	n/a	wordpools/wordpool_EN.txt	GOAT	11	5	[0, 0, 0]	n/a	0	1	0	n/a	n/a	0.0	0	0	0	FR2	2	R1030J
572.034	1.6	909254	WORD	n/a	wordpools/wordpool_EN.txt	SALT	12	5	[0, 0, 0]	n/a	0	1	0	n/a	n/a	0.0	0	0	0	FR2	2	R1030J
573.653	0.001	910873	DISTRACT_START	n/a	n/a	n/a	-999	5	[0, 0, 0]	n/a	0	1	0	n/a	n/a	0.0	0	0	0	FR2	2	R1030J
573.654	0.016	910874	START	n/a	n/a	n/a	-999	5	[-999, -999, -999]	n/a	0	1	0	n/a	n/a	0.0	0	0	0	FR2	2	R1030J
573.67	2.721	910890	PROB	2.693	n/a	n/a	-999	5	[4, 7, 7]	18	0	1	0	n/a	n/a	0.0	0	0	0	FR2	2	R1030J
576.391	2.204	913611	PROB	2.18	n/a	n/a	-999	5	[5, 3, 3]	11	0	1	0	n/a	n/a	0.0	0	0	0	FR2	2	R1030J
578.595	3.606	915815	PROB	3.568	n/a	n/a	-999	5	[4, 3, 5]	12	0	1	0	n/a	n/a	0.0	0	0	0	FR2	2	R1030J
582.201	3.589	919421	PROB	3.562	n/a	n/a	-999	5	[5, 9, 8]	22	0	1	0	n/a	n/a	0.0	0	0	0	FR2	2	R1030J
585.79	3.606	923010	PROB	3.581	n/a	n/a	-999	5	[8, 4, 7]	19	0	1	0	n/a	n/a	0.0	0	0	0	FR2	2	R1030J
589.396	3.607	926616	PROB	3.583	n/a	n/a	-999	5	[9, 3, 8]	20	0	1	0	n/a	n/a	0.0	0	0	0	FR2	2	R1030J
593.003	3.497	930223	PROB	3.497	n/a	n/a	-999	5	[2, 7, 4]	13	0	1	0	n/a	n/a	0.0	0	0	0	FR2	2	R1030J
596.5	0.01	933720	STOP	n/a	n/a	n/a	-999	5	[-999, -999, -999]	n/a	0	1	0	n/a	n/a	0.0	0	0	0	FR2	2	R1030J
596.51	1.184	933730	DISTRACT_END	n/a	n/a	n/a	-999	5	[0, 0, 0]	n/a	0	1	0	n/a	n/a	0.0	0	0	0	FR2	2	R1030J
597.694	1.389	934914	REC_START	n/a	n/a	n/a	-999	5	[0, 0, 0]	n/a	0	1	0	n/a	n/a	0.0	0	0	0	FR2	2	R1030J
599.083	1.101	936303	REC_WORD_VV	1.389	n/a	<>	-999	5	[0, 0, 0]	n/a	0	1	0	n/a	n/a	0.0	0	0	0	FR2	2	R1030J
600.184	1.383	937404	REC_WORD	2.49	n/a	FRUIT	-999	5	[0, 0, 0]	n/a	0	1	0	n/a	n/a	0.0	0	0	0	FR2	2	R1030J
601.567	1.36	938787	REC_WORD	3.873	n/a	GRASS	-999	5	[0, 0, 0]	n/a	0	1	0	n/a	n/a	0.0	0	0	0	FR2	2	R1030J
602.927	1.864	940147	REC_WORD	5.233	n/a	LAWN	-999	5	[0, 0, 0]	n/a	0	1	0	n/a	n/a	0.0	0	0	0	FR2	2	R1030J
604.791	3.415	942011	REC_WORD	7.097	n/a	BEAR	-999	5	[0, 0, 0]	n/a	0	1	0	n/a	n/a	0.0	0	0	0	FR2	2	R1030J
608.206	6.036	945426	REC_WORD	10.512	n/a	SNOW	-999	5	[0, 0, 0]	n/a	0	1	0	n/a	n/a	0.0	0	0	0	FR2	2	R1030J
614.242	13.473	951462	REC_WORD_VV	16.548	n/a	<>	-999	5	[0, 0, 0]	n/a	0	1	0	n/a	n/a	0.0	0	0	0	FR2	2	R1030J
627.715	2.166	964934	REC_END	n/a	n/a	n/a	-999	5	[0, 0, 0]	n/a	0	1	0	n/a	n/a	0.0	0	0	0	FR2	2	R1030J
629.881	10.0	967100	COUNTDOWN_START	n/a	n/a	n/a	-999	6	[0, 0, 0]	n/a	0	1	0	n/a	n/a	0.0	0	0	0	FR2	2	R1030J
629.882	10.427	967101	TRIAL	n/a	n/a	n/a	-999	6	[0, 0, 0]	n/a	0	1	0	n/a	n/a	0.0	0	0	0	FR2	2	R1030J
640.309	0.006	977528	COUNTDOWN_END	n/a	n/a	n/a	-999	6	[0, 0, 0]	n/a	0	1	0	n/a	n/a	0.0	0	0	0	FR2	2	R1030J
640.315	1.6	977534	ORIENT	n/a	n/a	n/a	-999	6	[0, 0, 0]	n/a	0	1	0	n/a	n/a	0.0	0	0	0	FR2	2	R1030J
642.886	1.6	980105	WORD	n/a	wordpools/wordpool_EN.txt	FLEA	1	6	[0, 0, 0]	n/a	0	1	0	n/a	n/a	0.0	0	0	0	FR2	2	R1030J
645.324	1.6	982543	WORD	n/a	wordpools/wordpool_EN.txt	WEB	2	6	[0, 0, 0]	n/a	0	1	0	n/a	n/a	0.0	0	0	0	FR2	2	R1030J
647.641	4.6	984860	STIM_ON	n/a	n/a	n/a	-999	6	[0, 0, 0]	n/a	1	1	4600	LQ1	LQ2	500.0	50	230	300	FR2	2	R1030J
647.845	1.6	985064	WORD	n/a	wordpools/wordpool_EN.txt	FORT	3	6	[0, 0, 0]	n/a	1	1	4600	LQ1	LQ2	500.0	50	230	300	FR2	2	R1030J
650.433	1.6	987652	WORD	n/a	wordpools/wordpool_EN.txt	DOOR	4	6	[0, 0, 0]	n/a	1	1	4600	LQ1	LQ2	500.0	50	230	300	FR2	2	R1030J
652.937	1.6	990156	WORD	n/a	wordpools/wordpool_EN.txt	TRUCK	5	6	[0, 0, 0]	n/a	0	1	0	n/a	n/a	0.0	0	0	0	FR2	2	R1030J
655.492	1.6	992711	WORD	n/a	wordpools/wordpool_EN.txt	PEAR	6	6	[0, 0, 0]	n/a	0	1	0	n/a	n/a	0.0	0	0	0	FR2	2	R1030J
657.867	4.6	995086	STIM_ON	n/a	n/a	n/a	-999	6	[0, 0, 0]	n/a	1	1	4600	LQ1	LQ2	500.0	50	230	300	FR2	2	R1030J
658.079	1.6	995298	WORD	n/a	wordpools/wordpool_EN.txt	VEST	7	6	[0, 0, 0]	n/a	1	1	4600	LQ1	LQ2	500.0	50	230	300	FR2	2	R1030J
660.6	1.6	997819	WORD	n/a	wordpools/wordpool_EN.txt	COW	8	6	[0, 0, 0]	n/a	1	1	4600	LQ1	LQ2	500.0	50	230	300	FR2	2	R1030J
663.054	1.6	1000273	WORD	n/a	wordpools/wordpool_EN.txt	CAGE	9	6	[0, 0, 0]	n/a	0	1	0	n/a	n/a	0.0	0	0	0	FR2	2	R1030J
665.492	1.6	1002711	WORD	n/a	wordpools/wordpool_EN.txt	OWL	10	6	[0, 0, 0]	n/a	0	1	0	n/a	n/a	0.0	0	0	0	FR2	2	R1030J
667.674	4.6	1004893	STIM_ON	n/a	n/a	n/a	-999	6	[0, 0, 0]	n/a	1	1	4600	LQ1	LQ2	500.0	50	230	300	FR2	2	R1030J
667.879	1.6	1005098	WORD	n/a	wordpools/wordpool_EN.txt	LAKE	11	6	[0, 0, 0]	n/a	1	1	4600	LQ1	LQ2	500.0	50	230	300	FR2	2	R1030J
670.484	1.6	1007703	WORD	n/a	wordpools/wordpool_EN.txt	PEA	12	6	[0, 0, 0]	n/a	1	1	4600	LQ1	LQ2	500.0	50	230	300	FR2	2	R1030J
672.102	0.001	1009321	DISTRACT_START	n/a	n/a	n/a	-999	6	[0, 0, 0]	n/a	1	1	4600	LQ1	LQ2	500.0	50	230	300	FR2	2	R1030J
672.103	0.016	1009322	START	n/a	n/a	n/a	-999	6	[-999, -999, -999]	n/a	0	1	0	n/a	n/a	0.0	0	0	0	FR2	2	R1030J
672.119	3.673	1009338	PROB	3.636	n/a	n/a	-999	6	[6, 5, 8]	19	0	1	0	n/a	n/a	0.0	0	0	0	FR2	2	R1030J
675.792	2.521	1013011	PROB	2.491	n/a	n/a	-999	6	[8, 2, 2]	12	0	1	0	n/a	n/a	0.0	0	0	0	FR2	2	R1030J
678.313	2.504	1015532	PROB	2.466	n/a	n/a	-999	6	[7, 3, 4]	14	0	1	0	n/a	n/a	0.0	0	0	0	FR2	2	R1030J
680.817	3.155	1018036	PROB	3.122	n/a	n/a	-999	6	[9, 8, 3]	20	0	1	0	n/a	n/a	0.0	0	0	0	FR2	2	R1030J
683.972	2.304	1021191	PROB	2.271	n/a	n/a	-999	6	[1, 5, 4]	10	0	1	0	n/a	n/a	0.0	0	0	0	FR2	2	R1030J
686.276	2.504	1023495	PROB	2.471	n/a	n/a	-999	6	[5, 2, 5]	12	0	1	0	n/a	n/a	0.0	0	0	0	FR2	2	R1030J
688.78	3.919	1025999	PROB	3.919	n/a	n/a	-999	6	[3, 2, 3]	8	0	1	0	n/a	n/a	0.0	0	0	0	FR2	2	R1030J
692.699	0.021	1029918	STOP	n/a	n/a	n/a	-999	6	[-999, -999, -999]	n/a	0	1	0	n/a	n/a	0.0	0	0	0	FR2	2	R1030J
692.72	1.219	1029939	DISTRACT_END	n/a	n/a	n/a	-999	6	[0, 0, 0]	n/a	0	1	0	n/a	n/a	0.0	0	0	0	FR2	2	R1030J
693.939	2.046	1031158	REC_START	n/a	n/a	n/a	-999	6	[0, 0, 0]	n/a	0	1	0	n/a	n/a	0.0	0	0	0	FR2	2	R1030J
695.985	1.904	1033204	REC_WORD_VV	2.046	n/a	<>	-999	6	[0, 0, 0]	n/a	0	1	0	n/a	n/a	0.0	0	0	0	FR2	2	R1030J
697.889	2.245	1035108	REC_WORD	3.95	n/a	FLEA	-999	6	[0, 0, 0]	n/a	0	1	0	n/a	n/a	0.0	0	0	0	FR2	2	R1030J
700.134	2.372	1037353	REC_WORD	6.195	n/a	PEA	-999	6	[0, 0, 0]	n/a	0	1	0	n/a	n/a	0.0	0	0	0	FR2	2	R1030J
702.506	6.617	1039725	REC_WORD	8.567	n/a	VEST	-999	6	[0, 0, 0]	n/a	0	1	0	n/a	n/a	0.0	0	0	0	FR2	2	R1030J
709.123	2.136	1046342	REC_WORD	15.184	n/a	STAR	-999	6	[0, 0, 0]	n/a	0	1	0	n/a	n/a	0.0	0	0	0	FR2	2	R1030J
711.259	2.08	1048478	REC_WORD	17.32	n/a	MAT	-999	6	[0, 0, 0]	n/a	0	1	0	n/a	n/a	0.0	0	0	0	FR2	2	R1030J
713.339	8.38	1050558	REC_WORD	19.4	n/a	DOOR	-999	6	[0, 0, 0]	n/a	0	1	0	n/a	n/a	0.0	0	0	0	FR2	2	R1030J
721.719	2.121	1058937	REC_WORD_VV	27.78	n/a	<>	-999	6	[0, 0, 0]	n/a	0	1	0	n/a	n/a	0.0	0	0	0	FR2	2	R1030J
723.84	0.119	1061058	REC_WORD_VV	29.901	n/a	<>	-999	6	[0, 0, 0]	n/a	0	1	0	n/a	n/a	0.0	0	0	0	FR2	2	R1030J
723.959	4.071	1061177	REC_END	n/a	n/a	n/a	-999	6	[0, 0, 0]	n/a	0	1	0	n/a	n/a	0.0	0	0	0	FR2	2	R1030J
728.03	10.0	1065248	COUNTDOWN_START	n/a	n/a	n/a	-999	7	[0, 0, 0]	n/a	0	1	0	n/a	n/a	0.0	0	0	0	FR2	2	R1030J
728.03	10.428	1065248	TRIAL	n/a	n/a	n/a	-999	7	[0, 0, 0]	n/a	0	1	0	n/a	n/a	0.0	0	0	0	FR2	2	R1030J
738.458	0.007	1075676	COUNTDOWN_END	n/a	n/a	n/a	-999	7	[0, 0, 0]	n/a	0	1	0	n/a	n/a	0.0	0	0	0	FR2	2	R1030J
738.465	1.6	1075683	ORIENT	n/a	n/a	n/a	-999	7	[0, 0, 0]	n/a	0	1	0	n/a	n/a	0.0	0	0	0	FR2	2	R1030J
741.052	1.6	1078270	WORD	n/a	wordpools/wordpool_EN.txt	SIGN	1	7	[0, 0, 0]	n/a	0	1	0	n/a	n/a	0.0	0	0	0	FR2	2	R1030J
743.507	1.6	1080725	WORD	n/a	wordpools/wordpool_EN.txt	CASH	2	7	[0, 0, 0]	n/a	0	1	0	n/a	n/a	0.0	0	0	0	FR2	2	R1030J
745.727	4.6	1082945	STIM_ON	n/a	n/a	n/a	-999	7	[0, 0, 0]	n/a	1	1	4600	LQ1	LQ2	500.0	50	230	300	FR2	2	R1030J
745.943	1.6	1083161	WORD	n/a	wordpools/wordpool_EN.txt	PIE	3	7	[0, 0, 0]	n/a	1	1	4600	LQ1	LQ2	500.0	50	230	300	FR2	2	R1030J
748.532	1.6	1085750	WORD	n/a	wordpools/wordpool_EN.txt	ARK	4	7	[0, 0, 0]	n/a	1	1	4600	LQ1	LQ2	500.0	50	230	300	FR2	2	R1030J
750.952	1.6	1088170	WORD	n/a	wordpools/wordpool_EN.txt	PIT	5	7	[0, 0, 0]	n/a	0	1	0	n/a	n/a	0.0	0	0	0	FR2	2	R1030J
753.372	1.6	1090590	WORD	n/a	wordpools/wordpool_EN.txt	FOAM	6	7	[0, 0, 0]	n/a	0	1	0	n/a	n/a	0.0	0	0	0	FR2	2	R1030J
755.689	4.6	1092907	STIM_ON	n/a	n/a	n/a	-999	7	[0, 0, 0]	n/a	1	1	4600	LQ1	LQ2	500.0	50	230	300	FR2	2	R1030J
755.91	1.6	1093128	WORD	n/a	wordpools/wordpool_EN.txt	HORSE	7	7	[0, 0, 0]	n/a	1	1	4600	LQ1	LQ2	500.0	50	230	300	FR2	2	R1030J
758.449	1.6	1095667	WORD	n/a	wordpools/wordpool_EN.txt	SWAMP	8	7	[0, 0, 0]	n/a	1	1	4600	LQ1	LQ2	500.0	50	230	300	FR2	2	R1030J
760.952	1.6	1098170	WORD	n/a	wordpools/wordpool_EN.txt	BANK	9	7	[0, 0, 0]	n/a	0	1	0	n/a	n/a	0.0	0	0	0	FR2	2	R1030J
763.389	1.6	1100607	WORD	n/a	wordpools/wordpool_EN.txt	HILL	10	7	[0, 0, 0]	n/a	0	1	0	n/a	n/a	0.0	0	0	0	FR2	2	R1030J
765.786	4.6	1103004	STIM_ON	n/a	n/a	n/a	-999	7	[0, 0, 0]	n/a	1	1	4600	LQ1	LQ2	500.0	50	230	300	FR2	2	R1030J
765.994	1.6	1103212	WORD	n/a	wordpools/wordpool_EN.txt	NEST	11	7	[0, 0, 0]	n/a	1	1	4600	LQ1	LQ2	500.0	50	230	300	FR2	2	R1030J
768.381	1.6	1105599	WORD	n/a	wordpools/wordpool_EN.txt	TAIL	12	7	[0, 0, 0]	n/a	1	1	4600	LQ1	LQ2	500.0	50	230	300	FR2	2	R1030J
770.0	0.002	1107218	DISTRACT_START	n/a	n/a	n/a	-999	7	[0, 0, 0]	n/a	1	1	4600	LQ1	LQ2	500.0	50	230	300	FR2	2	R1030J
770.002	0.015	1107220	START	n/a	n/a	n/a	-999	7	[-999, -999, -999]	n/a	0	1	0	n/a	n/a	0.0	0	0	0	FR2	2	R1030J
770.017	2.972	1107235	PROB	2.938	n/a	n/a	-999	7	[5, 4, 9]	18	0	1	0	n/a	n/a	0.0	0	0	0	FR2	2	R1030J
772.989	2.253	1110207	PROB	2.222	n/a	n/a	-999	7	[7, 1, 2]	10	0	1	0	n/a	n/a	0.0	0	0	0	FR2	2	R1030J
775.242	2.272	1112460	PROB	2.242	n/a	n/a	-999	7	[1, 9, 6]	16	0	1	0	n/a	n/a	0.0	0	0	0	FR2	2	R1030J
777.514	2.787	1114732	PROB	2.753	n/a	n/a	-999	7	[9, 2, 2]	13	0	1	0	n/a	n/a	0.0	0	0	0	FR2	2	R1030J
780.301	2.788	1117519	PROB	2.758	n/a	n/a	-999	7	[5, 7, 2]	14	0	1	0	n/a	n/a	0.0	0	0	0	FR2	2	R1030J
783.089	2.438	1120307	PROB	2.403	n/a	n/a	-999	7	[1, 7, 6]	14	0	1	0	n/a	n/a	0.0	0	0	0	FR2	2	R1030J
785.527	3.806	1122745	PROB	3.78	n/a	n/a	-999	7	[6, 1, 4]	11	0	1	0	n/a	n/a	0.0	0	0	0	FR2	2	R1030J
789.333	2.55	1126551	PROB	2.55	n/a	n/a	-999	7	[2, 3, 6]	11	0	1	0	n/a	n/a	0.0	0	0	0	FR2	2	R1030J
791.883	0.021	1129101	STOP	n/a	n/a	n/a	-999	7	[-999, -999, -999]	n/a	0	1	0	n/a	n/a	0.0	0	0	0	FR2	2	R1030J
791.904	1.186	1129122	DISTRACT_END	n/a	n/a	n/a	-999	7	[0, 0, 0]	n/a	0	1	0	n/a	n/a	0.0	0	0	0	FR2	2	R1030J
793.09	2.241	1130308	REC_START	n/a	n/a	n/a	-999	7	[0, 0, 0]	n/a	0	1	0	n/a	n/a	0.0	0	0	0	FR2	2	R1030J
795.331	1.656	1132549	REC_WORD	2.241	n/a	ARK	-999	7	[0, 0, 0]	n/a	0	1	0	n/a	n/a	0.0	0	0	0	FR2	2	R1030J
796.987	1.008	1134205	REC_WORD	3.897	n/a	RAT	-999	7	[0, 0, 0]	n/a	0	1	0	n/a	n/a	0.0	0	0	0	FR2	2	R1030J
797.995	1.34	1135213	REC_WORD	4.905	n/a	SWAMP	-999	7	[0, 0, 0]	n/a	0	1	0	n/a	n/a	0.0	0	0	0	FR2	2	R1030J
799.335	3.605	1136553	REC_WORD	6.245	n/a	SIGN	-999	7	[0, 0, 0]	n/a	0	1	0	n/a	n/a	0.0	0	0	0	FR2	2	R1030J
802.94	3.834	1140158	REC_WORD	9.85	n/a	FOAM	-999	7	[0, 0, 0]	n/a	0	1	0	n/a	n/a	0.0	0	0	0	FR2	2	R1030J
806.774	2.375	1143992	REC_WORD	13.684	n/a	HILL	-999	7	[0, 0, 0]	n/a	0	1	0	n/a	n/a	0.0	0	0	0	FR2	2	R1030J
809.149	13.953	1146367	REC_WORD	16.059	n/a	PIT	-999	7	[0, 0, 0]	n/a	0	1	0	n/a	n/a	0.0	0	0	0	FR2	2	R1030J
823.102	2.46	1160319	REC_END	n/a	n/a	n/a	-999	7	[0, 0, 0]	n/a	0	1	0	n/a	n/a	0.0	0	0	0	FR2	2	R1030J
825.562	0.0	1162779	TRIAL	n/a	n/a	n/a	-999	8	[0, 0, 0]	n/a	0	1	0	n/a	n/a	0.0	0	0	0	FR2	2	R1030J
825.562	10.0	1162779	COUNTDOWN_START	n/a	n/a	n/a	-999	8	[0, 0, 0]	n/a	0	1	0	n/a	n/a	0.0	0	0	0	FR2	2	R1030J
835.99	0.005	1173207	COUNTDOWN_END	n/a	n/a	n/a	-999	8	[0, 0, 0]	n/a	0	1	0	n/a	n/a	0.0	0	0	0	FR2	2	R1030J
835.995	1.6	1173212	ORIENT	n/a	n/a	n/a	-999	8	[0, 0, 0]	n/a	0	1	0	n/a	n/a	0.0	0	0	0	FR2	2	R1030J
838.29	4.6	1175507	STIM_ON	n/a	n/a	n/a	-999	8	[0, 0, 0]	n/a	1	1	4600	LQ1	LQ2	500.0	50	230	300	FR2	2	R1030J
838.5	1.6	1175717	WORD	n/a	wordpools/wordpool_EN.txt	PRINCE	1	8	[0, 0, 0]	n/a	1	1	4600	LQ1	LQ2	500.0	50	230	300	FR2	2	R1030J
841.053	1.6	1178270	WORD	n/a	wordpools/wordpool_EN.txt	TOOL	2	8	[0, 0, 0]	n/a	1	1	4600	LQ1	LQ2	500.0	50	230	300	FR2	2	R1030J
843.542	1.6	1180759	WORD	n/a	wordpools/wordpool_EN.txt	NAIL	3	8	[0, 0, 0]	n/a	0	1	0	n/a	n/a	0.0	0	0	0	FR2	2	R1030J
846.162	1.6	1183379	WORD	n/a	wordpools/wordpool_EN.txt	JUDGE	4	8	[0, 0, 0]	n/a	0	1	0	n/a	n/a	0.0	0	0	0	FR2	2	R1030J
848.371	4.6	1185588	STIM_ON	n/a	n/a	n/a	-999	8	[0, 0, 0]	n/a	1	1	4600	LQ1	LQ2	500.0	50	230	300	FR2	2	R1030J
848.583	1.6	1185800	WORD	n/a	wordpools/wordpool_EN.txt	TEETH	5	8	[0, 0, 0]	n/a	1	1	4600	LQ1	LQ2	500.0	50	230	300	FR2	2	R1030J
851.087	1.6	1188304	WORD	n/a	wordpools/wordpool_EN.txt	BEACH	6	8	[0, 0, 0]	n/a	1	1	4600	LQ1	LQ2	500.0	50	230	300	FR2	2	R1030J
853.559	1.6	1190776	WORD	n/a	wordpools/wordpool_EN.txt	GLASS	7	8	[0, 0, 0]	n/a	0	1	0	n/a	n/a	0.0	0	0	0	FR2	2	R1030J
856.112	1.6	1193329	WORD	n/a	wordpools/wordpool_EN.txt	TOAST	8	8	[0, 0, 0]	n/a	0	1	0	n/a	n/a	0.0	0	0	0	FR2	2	R1030J
858.443	4.6	1195660	STIM_ON	n/a	n/a	n/a	-999	8	[0, 0, 0]	n/a	1	1	4600	LQ1	LQ2	500.0	50	230	300	FR2	2	R1030J
858.651	1.6	1195868	WORD	n/a	wordpools/wordpool_EN.txt	TOE	9	8	[0, 0, 0]	n/a	1	1	4600	LQ1	LQ2	500.0	50	230	300	FR2	2	R1030J
861.237	1.6	1198454	WORD	n/a	wordpools/wordpool_EN.txt	SPOON	10	8	[0, 0, 0]	n/a	1	1	4600	LQ1	LQ2	500.0	50	230	300	FR2	2	R1030J
863.641	1.6	1200858	WORD	n/a	wordpools/wordpool_EN.txt	KITE	11	8	[0, 0, 0]	n/a	0	1	0	n/a	n/a	0.0	0	0	0	FR2	2	R1030J
866.045	1.6	1203262	WORD	n/a	wordpools/wordpool_EN.txt	ROOM	12	8	[0, 0, 0]	n/a	0	1	0	n/a	n/a	0.0	0	0	0	FR2	2	R1030J
867.665	0.0	1204882	DISTRACT_START	n/a	n/a	n/a	-999	8	[0, 0, 0]	n/a	0	1	0	n/a	n/a	0.0	0	0	0	FR2	2	R1030J
867.665	0.016	1204882	START	n/a	n/a	n/a	-999	8	[-999, -999, -999]	n/a	0	1	0	n/a	n/a	0.0	0	0	0	FR2	2	R1030J
867.681	4.141	1204898	PROB	4.114	n/a	n/a	-999	8	[6, 9, 2]	17	0	1	0	n/a	n/a	0.0	0	0	0	FR2	2	R1030J
871.822	2.788	1209039	PROB	2.765	n/a	n/a	-999	8	[7, 5, 9]	21	0	1	0	n/a	n/a	0.0	0	0	0	FR2	2	R1030J
874.61	2.02	1211827	PROB	1.985	n/a	n/a	-999	8	[1, 7, 1]	9	0	1	0	n/a	n/a	0.0	0	0	0	FR2	2	R1030J
876.63	2.17	1213847	PROB	2.149	n/a	n/a	-999	8	[7, 1, 2]	10	0	1	0	n/a	n/a	0.0	0	0	0	FR2	2	R1030J
878.8	2.421	1216017	PROB	2.395	n/a	n/a	-999	8	[3, 2, 1]	6	0	1	0	n/a	n/a	0.0	0	0	0	FR2	2	R1030J
881.221	2.37	1218438	PROB	2.335	n/a	n/a	-999	8	[2, 3, 1]	6	0	1	0	n/a	n/a	0.0	0	0	0	FR2	2	R1030J
883.591	4.284	1220808	PROB	4.284	n/a	n/a	-999	8	[2, 3, 4]	9	0	1	0	n/a	n/a	0.0	0	0	0	FR2	2	R1030J
887.875	0.007	1225092	STOP	n/a	n/a	n/a	-999	8	[-999, -999, -999]	n/a	0	1	0	n/a	n/a	0.0	0	0	0	FR2	2	R1030J
887.882	1.069	1225099	DISTRACT_END	n/a	n/a	n/a	-999	8	[0, 0, 0]	n/a	0	1	0	n/a	n/a	0.0	0	0	0	FR2	2	R1030J
888.951	3.064	1226168	REC_START	n/a	n/a	n/a	-999	8	[0, 0, 0]	n/a	0	1	0	n/a	n/a	0.0	0	0	0	FR2	2	R1030J
892.015	2.023	1229232	REC_WORD_VV	3.064	n/a	<>	-999	8	[0, 0, 0]	n/a	0	1	0	n/a	n/a	0.0	0	0	0	FR2	2	R1030J
894.038	3.784	1231255	REC_WORD	5.087	n/a	TOE	-999	8	[0, 0, 0]	n/a	0	1	0	n/a	n/a	0.0	0	0	0	FR2	2	R1030J
897.822	0.727	1235039	REC_WORD_VV	8.871	n/a	<>	-999	8	[0, 0, 0]	n/a	0	1	0	n/a	n/a	0.0	0	0	0	FR2	2	R1030J
898.549	1.406	1235766	REC_WORD	9.598	n/a	ROOM	-999	8	[0, 0, 0]	n/a	0	1	0	n/a	n/a	0.0	0	0	0	FR2	2	R1030J
899.955	1.685	1237172	REC_WORD	11.004	n/a	GLASS	-999	8	[0, 0, 0]	n/a	0	1	0	n/a	n/a	0.0	0	0	0	FR2	2	R1030J
901.64	3.455	1238857	REC_WORD	12.689	n/a	JUDGE	-999	8	[0, 0, 0]	n/a	0	1	0	n/a	n/a	0.0	0	0	0	FR2	2	R1030J
905.095	13.87	1242312	REC_WORD	16.144	n/a	TEETH	-999	8	[0, 0, 0]	n/a	0	1	0	n/a	n/a	0.0	0	0	0	FR2	2	R1030J
918.965	2.273	1256181	REC_END	n/a	n/a	n/a	-999	8	[0, 0, 0]	n/a	0	1	0	n/a	n/a	0.0	0	0	0	FR2	2	R1030J
921.238	10.0	1258454	COUNTDOWN_START	n/a	n/a	n/a	-999	9	[0, 0, 0]	n/a	0	1	0	n/a	n/a	0.0	0	0	0	FR2	2	R1030J
921.239	10.427	1258455	TRIAL	n/a	n/a	n/a	-999	9	[0, 0, 0]	n/a	0	1	0	n/a	n/a	0.0	0	0	0	FR2	2	R1030J
931.666	0.006	1268882	COUNTDOWN_END	n/a	n/a	n/a	-999	9	[0, 0, 0]	n/a	0	1	0	n/a	n/a	0.0	0	0	0	FR2	2	R1030J
931.672	1.6	1268888	ORIENT	n/a	n/a	n/a	-999	9	[0, 0, 0]	n/a	0	1	0	n/a	n/a	0.0	0	0	0	FR2	2	R1030J
934.144	1.6	1271360	WORD	n/a	wordpools/wordpool_EN.txt	CHEEK	1	9	[0, 0, 0]	n/a	0	1	0	n/a	n/a	0.0	0	0	0	FR2	2	R1030J
936.581	1.6	1273797	WORD	n/a	wordpools/wordpool_EN.txt	SCHOOL	2	9	[0, 0, 0]	n/a	0	1	0	n/a	n/a	0.0	0	0	0	FR2	2	R1030J
938.777	4.6	1275993	STIM_ON	n/a	n/a	n/a	-999	9	[0, 0, 0]	n/a	1	1	4600	LQ1	LQ2	500.0	50	230	300	FR2	2	R1030J
938.985	1.6	1276201	WORD	n/a	wordpools/wordpool_EN.txt	HOOK	3	9	[0, 0, 0]	n/a	1	1	4600	LQ1	LQ2	500.0	50	230	300	FR2	2	R1030J
941.389	1.6	1278605	WORD	n/a	wordpools/wordpool_EN.txt	RIB	4	9	[0, 0, 0]	n/a	1	1	4600	LQ1	LQ2	500.0	50	230	300	FR2	2	R1030J
943.793	1.6	1281009	WORD	n/a	wordpools/wordpool_EN.txt	SAIL	5	9	[0, 0, 0]	n/a	0	1	0	n/a	n/a	0.0	0	0	0	FR2	2	R1030J
946.213	1.6	1283429	WORD	n/a	wordpools/wordpool_EN.txt	SHOE	6	9	[0, 0, 0]	n/a	0	1	0	n/a	n/a	0.0	0	0	0	FR2	2	R1030J
948.628	4.6	1285844	STIM_ON	n/a	n/a	n/a	-999	9	[0, 0, 0]	n/a	1	1	4600	LQ1	LQ2	500.0	50	230	300	FR2	2	R1030J
948.835	1.6	1286051	WORD	n/a	wordpools/wordpool_EN.txt	CROW	7	9	[0, 0, 0]	n/a	1	1	4600	LQ1	LQ2	500.0	50	230	300	FR2	2	R1030J
951.339	1.6	1288555	WORD	n/a	wordpools/wordpool_EN.txt	HEN	8	9	[0, 0, 0]	n/a	1	1	4600	LQ1	LQ2	500.0	50	230	300	FR2	2	R1030J
953.81	1.6	1291026	WORD	n/a	wordpools/wordpool_EN.txt	SLEEVE	9	9	[0, 0, 0]	n/a	0	1	0	n/a	n/a	0.0	0	0	0	FR2	2	R1030J
956.197	1.6	1293413	WORD	n/a	wordpools/wordpool_EN.txt	POOL	10	9	[0, 0, 0]	n/a	0	1	0	n/a	n/a	0.0	0	0	0	FR2	2	R1030J
958.471	4.6	1295687	STIM_ON	n/a	n/a	n/a	-999	9	[0, 0, 0]	n/a	1	1	4600	LQ1	LQ2	500.0	50	230	300	FR2	2	R1030J
958.685	1.6	1295901	WORD	n/a	wordpools/wordpool_EN.txt	ZOO	11	9	[0, 0, 0]	n/a	1	1	4600	LQ1	LQ2	500.0	50	230	300	FR2	2	R1030J
961.172	1.6	1298388	WORD	n/a	wordpools/wordpool_EN.txt	HAND	12	9	[0, 0, 0]	n/a	1	1	4600	LQ1	LQ2	500.0	50	230	300	FR2	2	R1030J
962.791	0.001	1300007	DISTRACT_START	n/a	n/a	n/a	-999	9	[0, 0, 0]	n/a	1	1	4600	LQ1	LQ2	500.0	50	230	300	FR2	2	R1030J
962.792	0.016	1300008	START	n/a	n/a	n/a	-999	9	[-999, -999, -999]	n/a	0	1	0	n/a	n/a	0.0	0	0	0	FR2	2	R1030J
962.808	4.374	1300024	PROB	4.339	n/a	n/a	-999	9	[5, 2, 9]	16	0	1	0	n/a	n/a	0.0	0	0	0	FR2	2	R1030J
967.182	2.12	1304398	PROB	2.093	n/a	n/a	-999	9	[7, 1, 7]	15	0	1	0	n/a	n/a	0.0	0	0	0	FR2	2	R1030J
969.302	3.339	1306518	PROB	3.301	n/a	n/a	-999	9	[5, 1, 9]	15	0	1	0	n/a	n/a	0.0	0	0	0	FR2	2	R1030J
972.641	2.054	1309857	PROB	2.034	n/a	n/a	-999	9	[5, 5, 1]	11	0	1	0	n/a	n/a	0.0	0	0	0	FR2	2	R1030J
974.695	2.487	1311911	PROB	2.443	n/a	n/a	-999	9	[6, 3, 1]	10	0	1	0	n/a	n/a	0.0	0	0	0	FR2	2	R1030J
977.182	2.305	1314398	PROB	2.27	n/a	n/a	-999	9	[6, 2, 6]	14	0	1	0	n/a	n/a	0.0	0	0	0	FR2	2	R1030J
979.487	3.692	1316703	PROB	3.692	n/a	n/a	-999	9	[8, 6, 9]	23	0	1	0	n/a	n/a	0.0	0	0	0	FR2	2	R1030J
983.179	0.013	1320395	STOP	n/a	n/a	n/a	-999	9	[-999, -999, -999]	n/a	0	1	0	n/a	n/a	0.0	0	0	0	FR2	2	R1030J
983.192	1.186	1320408	DISTRACT_END	n/a	n/a	n/a	-999	9	[0, 0, 0]	n/a	0	1	0	n/a	n/a	0.0	0	0	0	FR2	2	R1030J
984.378	4.942	1321594	REC_START	n/a	n/a	n/a	-999	9	[0, 0, 0]	n/a	0	1	0	n/a	n/a	0.0	0	0	0	FR2	2	R1030J
989.32	3.789	1326536	REC_WORD_VV	4.942	n/a	<>	-999	9	[0, 0, 0]	n/a	0	1	0	n/a	n/a	0.0	0	0	0	FR2	2	R1030J
993.109	4.673	1330325	REC_WORD	8.731	n/a	FLOOD	-999	9	[0, 0, 0]	n/a	0	1	0	n/a	n/a	0.0	0	0	0	FR2	2	R1030J
997.782	6.461	1334998	REC_WORD	13.404	n/a	NAIL	-999	9	[0, 0, 0]	n/a	0	1	0	n/a	n/a	0.0	0	0	0	FR2	2	R1030J
1004.243	1.068	1341459	REC_WORD_VV	19.865	n/a	<>	-999	9	[0, 0, 0]	n/a	0	1	0	n/a	n/a	0.0	0	0	0	FR2	2	R1030J
1005.311	9.092	1342527	REC_WORD	20.933	n/a	SPARK	-999	9	[0, 0, 0]	n/a	0	1	0	n/a	n/a	0.0	0	0	0	FR2	2	R1030J
1014.403	2.446	1351618	REC_END	n/a	n/a	n/a	-999	9	[0, 0, 0]	n/a	0	1	0	n/a	n/a	0.0	0	0	0	FR2	2	R1030J
1016.849	10.0	1354064	COUNTDOWN_START	n/a	n/a	n/a	-999	10	[0, 0, 0]	n/a	0	1	0	n/a	n/a	0.0	0	0	0	FR2	2	R1030J
1016.85	10.427	1354065	TRIAL	n/a	n/a	n/a	-999	10	[0, 0, 0]	n/a	0	1	0	n/a	n/a	0.0	0	0	0	FR2	2	R1030J
1027.277	0.006	1364492	COUNTDOWN_END	n/a	n/a	n/a	-999	10	[0, 0, 0]	n/a	0	1	0	n/a	n/a	0.0	0	0	0	FR2	2	R1030J
1027.283	1.6	1364498	ORIENT	n/a	n/a	n/a	-999	10	[0, 0, 0]	n/a	0	1	0	n/a	n/a	0.0	0	0	0	FR2	2	R1030J
1029.838	1.6	1367053	WORD	n/a	wordpools/wordpool_EN.txt	HOUSE	1	10	[0, 0, 0]	n/a	0	1	0	n/a	n/a	0.0	0	0	0	FR2	2	R1030J
1032.442	1.6	1369657	WORD	n/a	wordpools/wordpool_EN.txt	SOUP	2	10	[0, 0, 0]	n/a	0	1	0	n/a	n/a	0.0	0	0	0	FR2	2	R1030J
1034.626	4.6	1371841	STIM_ON	n/a	n/a	n/a	-999	10	[0, 0, 0]	n/a	1	1	4600	LQ1	LQ2	500.0	50	230	300	FR2	2	R1030J
1034.846	1.6	1372061	WORD	n/a	wordpools/wordpool_EN.txt	PIN	3	10	[0, 0, 0]	n/a	1	1	4600	LQ1	LQ2	500.0	50	230	300	FR2	2	R1030J
1037.434	1.6	1374649	WORD	n/a	wordpools/wordpool_EN.txt	WHALE	4	10	[0, 0, 0]	n/a	1	1	4600	LQ1	LQ2	500.0	50	230	300	FR2	2	R1030J
1039.905	1.6	1377120	WORD	n/a	wordpools/wordpool_EN.txt	FOOT	5	10	[0, 0, 0]	n/a	0	1	0	n/a	n/a	0.0	0	0	0	FR2	2	R1030J
1042.292	1.6	1379507	WORD	n/a	wordpools/wordpool_EN.txt	BARN	6	10	[0, 0, 0]	n/a	0	1	0	n/a	n/a	0.0	0	0	0	FR2	2	R1030J
1044.504	4.6	1381719	STIM_ON	n/a	n/a	n/a	-999	10	[0, 0, 0]	n/a	1	1	4600	LQ1	LQ2	500.0	50	230	300	FR2	2	R1030J
1044.713	1.6	1381928	WORD	n/a	wordpools/wordpool_EN.txt	TENT	7	10	[0, 0, 0]	n/a	1	1	4600	LQ1	LQ2	500.0	50	230	300	FR2	2	R1030J
1047.133	1.6	1384348	WORD	n/a	wordpools/wordpool_EN.txt	PHONE	8	10	[0, 0, 0]	n/a	1	1	4600	LQ1	LQ2	500.0	50	230	300	FR2	2	R1030J
1049.621	1.6	1386836	WORD	n/a	wordpools/wordpool_EN.txt	SEAT	9	10	[0, 0, 0]	n/a	0	1	0	n/a	n/a	0.0	0	0	0	FR2	2	R1030J
1052.092	1.6	1389307	WORD	n/a	wordpools/wordpool_EN.txt	BAT	10	10	[0, 0, 0]	n/a	0	1	0	n/a	n/a	0.0	0	0	0	FR2	2	R1030J
1054.397	4.6	1391612	STIM_ON	n/a	n/a	n/a	-999	10	[0, 0, 0]	n/a	1	1	4600	LQ1	LQ2	500.0	50	230	300	FR2	2	R1030J
1054.613	1.6	1391828	WORD	n/a	wordpools/wordpool_EN.txt	STRAW	11	10	[0, 0, 0]	n/a	1	1	4600	LQ1	LQ2	500.0	50	230	300	FR2	2	R1030J
1057.151	1.6	1394366	WORD	n/a	wordpools/wordpool_EN.txt	LEG	12	10	[0, 0, 0]	n/a	1	1	4600	LQ1	LQ2	500.0	50	230	300	FR2	2	R1030J
1058.77	0.0	1395985	DISTRACT_START	n/a	n/a	n/a	-999	10	[0, 0, 0]	n/a	1	1	4600	LQ1	LQ2	500.0	50	230	300	FR2	2	R1030J
1058.77	0.016	1395985	START	n/a	n/a	n/a	-999	10	[-999, -999, -999]	n/a	0	1	0	n/a	n/a	0.0	0	0	0	FR2	2	R1030J
1058.786	3.54	1396001	PROB	3.513	n/a	n/a	-999	10	[5, 3, 7]	15	0	1	0	n/a	n/a	0.0	0	0	0	FR2	2	R1030J
1062.326	2.637	1399541	PROB	2.605	n/a	n/a	-999	10	[1, 9, 6]	16	0	1	0	n/a	n/a	0.0	0	0	0	FR2	2	R1030J
1064.963	2.287	1402178	PROB	2.264	n/a	n/a	-999	10	[9, 3, 1]	13	0	1	0	n/a	n/a	0.0	0	0	0	FR2	2	R1030J
1067.25	2.187	1404465	PROB	2.161	n/a	n/a	-999	10	[1, 3, 5]	9	0	1	0	n/a	n/a	0.0	0	0	0	FR2	2	R1030J
1069.437	2.655	1406652	PROB	2.63	n/a	n/a	-999	10	[3, 7, 6]	16	0	1	0	n/a	n/a	0.0	0	0	0	FR2	2	R1030J
1072.092	2.104	1409307	PROB	2.071	n/a	n/a	-999	10	[7, 3, 2]	12	0	1	0	n/a	n/a	0.0	0	0	0	FR2	2	R1030J
1074.196	3.672	1411411	PROB	3.639	n/a	n/a	-999	10	[8, 8, 6]	22	0	1	0	n/a	n/a	0.0	0	0	0	FR2	2	R1030J
1077.868	3.271	1415083	PROB	3.271	n/a	n/a	-999	10	[6, 8, 9]	23	0	1	0	n/a	n/a	0.0	0	0	0	FR2	2	R1030J
1081.139	0.018	1418354	STOP	n/a	n/a	n/a	-999	10	[-999, -999, -999]	n/a	0	1	0	n/a	n/a	0.0	0	0	0	FR2	2	R1030J
1081.157	1.136	1418372	DISTRACT_END	n/a	n/a	n/a	-999	10	[0, 0, 0]	n/a	0	1	0	n/a	n/a	0.0	0	0	0	FR2	2	R1030J
1082.293	1.809	1419508	REC_START	n/a	n/a	n/a	-999	10	[0, 0, 0]	n/a	0	1	0	n/a	n/a	0.0	0	0	0	FR2	2	R1030J
1084.102	1.954	1421317	REC_WORD_VV	1.809	n/a	<>	-999	10	[0, 0, 0]	n/a	0	1	0	n/a	n/a	0.0	0	0	0	FR2	2	R1030J
1086.056	1.499	1423271	REC_WORD	3.763	n/a	BAT	-999	10	[0, 0, 0]	n/a	0	1	0	n/a	n/a	0.0	0	0	0	FR2	2	R1030J
1087.555	3.678	1424770	REC_WORD	5.262	n/a	TOE	-999	10	[0, 0, 0]	n/a	0	1	0	n/a	n/a	0.0	0	0	0	FR2	2	R1030J
1091.233	5.397	1428448	REC_WORD	8.94	n/a	TONGUE	-999	10	[0, 0, 0]	n/a	0	1	0	n/a	n/a	0.0	0	0	0	FR2	2	R1030J
1096.63	1.857	1433845	REC_WORD	14.337	n/a	LEG	-999	10	[0, 0, 0]	n/a	0	1	0	n/a	n/a	0.0	0	0	0	FR2	2	R1030J
1098.487	2.262	1435702	REC_WORD	16.194	n/a	BLUSH	-999	10	[0, 0, 0]	n/a	0	1	0	n/a	n/a	0.0	0	0	0	FR2	2	R1030J
1100.749	1.685	1437964	REC_WORD	18.456	n/a	ROOM	-999	10	[0, 0, 0]	n/a	0	1	0	n/a	n/a	0.0	0	0	0	FR2	2	R1030J
1102.434	9.873	1439649	REC_WORD	20.141	n/a	HOUSE	-999	10	[0, 0, 0]	n/a	0	1	0	n/a	n/a	0.0	0	0	0	FR2	2	R1030J
1112.307	1.956	1449521	REC_END	n/a	n/a	n/a	-999	10	[0, 0, 0]	n/a	0	1	0	n/a	n/a	0.0	0	0	0	FR2	2	R1030J
1114.263	0.0	1451477	TRIAL	n/a	n/a	n/a	-999	11	[0, 0, 0]	n/a	0	1	0	n/a	n/a	0.0	0	0	0	FR2	2	R1030J
1114.263	10.0	1451477	COUNTDOWN_START	n/a	n/a	n/a	-999	11	[0, 0, 0]	n/a	0	1	0	n/a	n/a	0.0	0	0	0	FR2	2	R1030J
1124.691	0.006	1461905	COUNTDOWN_END	n/a	n/a	n/a	-999	11	[0, 0, 0]	n/a	0	1	0	n/a	n/a	0.0	0	0	0	FR2	2	R1030J
1124.697	1.6	1461911	ORIENT	n/a	n/a	n/a	-999	11	[0, 0, 0]	n/a	0	1	0	n/a	n/a	0.0	0	0	0	FR2	2	R1030J
1127.101	1.6	1464315	WORD	n/a	wordpools/wordpool_EN.txt	STOOL	1	11	[0, 0, 0]	n/a	0	1	0	n/a	n/a	0.0	0	0	0	FR2	2	R1030J
1129.622	1.6	1466836	WORD	n/a	wordpools/wordpool_EN.txt	PURSE	2	11	[0, 0, 0]	n/a	0	1	0	n/a	n/a	0.0	0	0	0	FR2	2	R1030J
1131.964	4.6	1469178	STIM_ON	n/a	n/a	n/a	-999	11	[0, 0, 0]	n/a	1	1	4600	LQ1	LQ2	500.0	50	230	300	FR2	2	R1030J
1132.176	1.6	1469390	WORD	n/a	wordpools/wordpool_EN.txt	ELF	3	11	[0, 0, 0]	n/a	1	1	4600	LQ1	LQ2	500.0	50	230	300	FR2	2	R1030J
1134.781	1.6	1471995	WORD	n/a	wordpools/wordpool_EN.txt	CLOTH	4	11	[0, 0, 0]	n/a	1	1	4600	LQ1	LQ2	500.0	50	230	300	FR2	2	R1030J
1137.352	1.6	1474566	WORD	n/a	wordpools/wordpool_EN.txt	BAG	5	11	[0, 0, 0]	n/a	0	1	0	n/a	n/a	0.0	0	0	0	FR2	2	R1030J
1139.857	1.6	1477071	WORD	n/a	wordpools/wordpool_EN.txt	ROOF	6	11	[0, 0, 0]	n/a	0	1	0	n/a	n/a	0.0	0	0	0	FR2	2	R1030J
1142.267	4.6	1479481	STIM_ON	n/a	n/a	n/a	-999	11	[0, 0, 0]	n/a	1	1	4600	LQ1	LQ2	500.0	50	230	300	FR2	2	R1030J
1142.478	1.6	1479692	WORD	n/a	wordpools/wordpool_EN.txt	LOCK	7	11	[0, 0, 0]	n/a	1	1	4600	LQ1	LQ2	500.0	50	230	300	FR2	2	R1030J
1144.881	1.6	1482095	WORD	n/a	wordpools/wordpool_EN.txt	VINE	8	11	[0, 0, 0]	n/a	1	1	4600	LQ1	LQ2	500.0	50	230	300	FR2	2	R1030J
1147.419	1.6	1484633	WORD	n/a	wordpools/wordpool_EN.txt	CORD	9	11	[0, 0, 0]	n/a	0	1	0	n/a	n/a	0.0	0	0	0	FR2	2	R1030J
1149.823	1.6	1487037	WORD	n/a	wordpools/wordpool_EN.txt	SHIRT	10	11	[0, 0, 0]	n/a	0	1	0	n/a	n/a	0.0	0	0	0	FR2	2	R1030J
1152.071	4.6	1489285	STIM_ON	n/a	n/a	n/a	-999	11	[0, 0, 0]	n/a	1	1	4600	LQ1	LQ2	500.0	50	230	300	FR2	2	R1030J
1152.277	1.6	1489491	WORD	n/a	wordpools/wordpool_EN.txt	STOVE	11	11	[0, 0, 0]	n/a	1	1	4600	LQ1	LQ2	500.0	50	230	300	FR2	2	R1030J
1154.815	1.6	1492029	WORD	n/a	wordpools/wordpool_EN.txt	MUG	12	11	[0, 0, 0]	n/a	1	1	4600	LQ1	LQ2	500.0	50	230	300	FR2	2	R1030J
1156.434	0.001	1493648	DISTRACT_START	n/a	n/a	n/a	-999	11	[0, 0, 0]	n/a	1	1	4600	LQ1	LQ2	500.0	50	230	300	FR2	2	R1030J
1156.435	0.017	1493649	START	n/a	n/a	n/a	-999	11	[-999, -999, -999]	n/a	0	1	0	n/a	n/a	0.0	0	0	0	FR2	2	R1030J
1156.452	3.805	1493666	PROB	3.767	n/a	n/a	-999	11	[9, 4, 1]	14	0	1	0	n/a	n/a	0.0	0	0	0	FR2	2	R1030J
1160.257	3.556	1497471	PROB	3.522	n/a	n/a	-999	11	[1, 8, 2]	11	0	1	0	n/a	n/a	0.0	0	0	0	FR2	2	R1030J
1163.813	3.055	1501027	PROB	3.03	n/a	n/a	-999	11	[8, 9, 3]	20	0	1	0	n/a	n/a	0.0	0	0	0	FR2	2	R1030J
1166.868	3.322	1504082	PROB	3.287	n/a	n/a	-999	11	[7, 1, 4]	12	0	1	0	n/a	n/a	0.0	0	0	0	FR2	2	R1030J
1170.19	3.89	1507404	PROB	3.861	n/a	n/a	-999	11	[7, 8, 4]	19	0	1	0	n/a	n/a	0.0	0	0	0	FR2	2	R1030J
1174.08	2.755	1511294	PROB	2.755	n/a	n/a	-999	11	[4, 7, 1]	12	0	1	0	n/a	n/a	0.0	0	0	0	FR2	2	R1030J
1176.835	0.017	1514049	STOP	n/a	n/a	n/a	-999	11	[-999, -999, -999]	n/a	0	1	0	n/a	n/a	0.0	0	0	0	FR2	2	R1030J
1176.852	1.135	1514066	DISTRACT_END	n/a	n/a	n/a	-999	11	[0, 0, 0]	n/a	0	1	0	n/a	n/a	0.0	0	0	0	FR2	2	R1030J
1177.987	7.361	1515201	REC_START	n/a	n/a	n/a	-999	11	[0, 0, 0]	n/a	0	1	0	n/a	n/a	0.0	0	0	0	FR2	2	R1030J
1185.348	12.476	1522562	REC_WORD	7.361	n/a	MUG	-999	11	[0, 0, 0]	n/a	0	1	0	n/a	n/a	0.0	0	0	0	FR2	2	R1030J
1197.824	2.028	1535038	REC_WORD	19.837	n/a	MAT	-999	11	[0, 0, 0]	n/a	0	1	0	n/a	n/a	0.0	0	0	0	FR2	2	R1030J
1199.852	8.159	1537066	REC_WORD	21.865	n/a	LAMP	-999	11	[0, 0, 0]	n/a	0	1	0	n/a	n/a	0.0	0	0	0	FR2	2	R1030J
1208.011	3.733	1545224	REC_END	n/a	n/a	n/a	-999	11	[0, 0, 0]	n/a	0	1	0	n/a	n/a	0.0	0	0	0	FR2	2	R1030J
1211.744	0.0	1548957	TRIAL	n/a	n/a	n/a	-999	12	[0, 0, 0]	n/a	0	1	0	n/a	n/a	0.0	0	0	0	FR2	2	R1030J
1211.744	10.0	1548957	COUNTDOWN_START	n/a	n/a	n/a	-999	12	[0, 0, 0]	n/a	0	1	0	n/a	n/a	0.0	0	0	0	FR2	2	R1030J
1222.172	0.006	1559385	COUNTDOWN_END	n/a	n/a	n/a	-999	12	[0, 0, 0]	n/a	0	1	0	n/a	n/a	0.0	0	0	0	FR2	2	R1030J
1222.178	1.6	1559391	ORIENT	n/a	n/a	n/a	-999	12	[0, 0, 0]	n/a	0	1	0	n/a	n/a	0.0	0	0	0	FR2	2	R1030J
1224.582	1.6	1561795	WORD	n/a	wordpools/wordpool_EN.txt	GATE	1	12	[0, 0, 0]	n/a	0	1	0	n/a	n/a	0.0	0	0	0	FR2	2	R1030J
1226.987	1.6	1564200	WORD	n/a	wordpools/wordpool_EN.txt	HOLE	2	12	[0, 0, 0]	n/a	0	1	0	n/a	n/a	0.0	0	0	0	FR2	2	R1030J
1229.196	4.6	1566409	STIM_ON	n/a	n/a	n/a	-999	12	[0, 0, 0]	n/a	1	1	4600	LQ1	LQ2	500.0	50	230	300	FR2	2	R1030J
1229.407	1.6	1566620	WORD	n/a	wordpools/wordpool_EN.txt	FLOOR	3	12	[0, 0, 0]	n/a	1	1	4600	LQ1	LQ2	500.0	50	230	300	FR2	2	R1030J
1231.994	1.6	1569207	WORD	n/a	wordpools/wordpool_EN.txt	FLAME	4	12	[0, 0, 0]	n/a	1	1	4600	LQ1	LQ2	500.0	50	230	300	FR2	2	R1030J
1234.582	1.6	1571795	WORD	n/a	wordpools/wordpool_EN.txt	MUD	5	12	[0, 0, 0]	n/a	0	1	0	n/a	n/a	0.0	0	0	0	FR2	2	R1030J
1237.12	1.6	1574333	WORD	n/a	wordpools/wordpool_EN.txt	JET	6	12	[0, 0, 0]	n/a	0	1	0	n/a	n/a	0.0	0	0	0	FR2	2	R1030J
1239.318	4.6	1576531	STIM_ON	n/a	n/a	n/a	-999	12	[0, 0, 0]	n/a	1	1	4600	LQ1	LQ2	500.0	50	230	300	FR2	2	R1030J
1239.525	1.6	1576738	WORD	n/a	wordpools/wordpool_EN.txt	JEEP	7	12	[0, 0, 0]	n/a	1	1	4600	LQ1	LQ2	500.0	50	230	300	FR2	2	R1030J
1241.961	1.6	1579174	WORD	n/a	wordpools/wordpool_EN.txt	PLATE	8	12	[0, 0, 0]	n/a	1	1	4600	LQ1	LQ2	500.0	50	230	300	FR2	2	R1030J
1244.349	1.6	1581562	WORD	n/a	wordpools/wordpool_EN.txt	MAZE	9	12	[0, 0, 0]	n/a	0	1	0	n/a	n/a	0.0	0	0	0	FR2	2	R1030J
1246.903	1.6	1584116	WORD	n/a	wordpools/wordpool_EN.txt	HAWK	10	12	[0, 0, 0]	n/a	0	1	0	n/a	n/a	0.0	0	0	0	FR2	2	R1030J
1249.28	4.6	1586493	STIM_ON	n/a	n/a	n/a	-999	12	[0, 0, 0]	n/a	1	1	4600	LQ1	LQ2	500.0	50	230	300	FR2	2	R1030J
1249.492	1.6	1586705	WORD	n/a	wordpools/wordpool_EN.txt	BEAK	11	12	[0, 0, 0]	n/a	1	1	4600	LQ1	LQ2	500.0	50	230	300	FR2	2	R1030J
1251.978	1.6	1589191	WORD	n/a	wordpools/wordpool_EN.txt	SEED	12	12	[0, 0, 0]	n/a	1	1	4600	LQ1	LQ2	500.0	50	230	300	FR2	2	R1030J
1253.597	0.001	1590810	DISTRACT_START	n/a	n/a	n/a	-999	12	[0, 0, 0]	n/a	1	1	4600	LQ1	LQ2	500.0	50	230	300	FR2	2	R1030J
1253.598	0.016	1590811	START	n/a	n/a	n/a	-999	12	[-999, -999, -999]	n/a	0	1	0	n/a	n/a	0.0	0	0	0	FR2	2	R1030J
1253.614	2.354	1590827	PROB	2.333	n/a	n/a	-999	12	[1, 2, 2]	5	0	1	0	n/a	n/a	0.0	0	0	0	FR2	2	R1030J
1255.968	2.505	1593181	PROB	2.467	n/a	n/a	-999	12	[3, 7, 9]	19	0	1	0	n/a	n/a	0.0	0	0	0	FR2	2	R1030J
1258.473	2.503	1595686	PROB	2.474	n/a	n/a	-999	12	[9, 5, 9]	23	0	1	0	n/a	n/a	0.0	0	0	0	FR2	2	R1030J
1260.976	3.289	1598189	PROB	3.259	n/a	n/a	-999	12	[4, 9, 6]	19	0	1	0	n/a	n/a	0.0	0	0	0	FR2	2	R1030J
1264.265	3.857	1601478	PROB	3.826	n/a	n/a	-999	12	[5, 6, 5]	16	0	1	0	n/a	n/a	0.0	0	0	0	FR2	2	R1030J
1268.122	3.34	1605335	PROB	3.313	n/a	n/a	-999	12	[4, 4, 2]	10	0	1	0	n/a	n/a	0.0	0	0	0	FR2	2	R1030J
1271.462	4.453	1608675	PROB	4.453	n/a	n/a	-999	12	[2, 7, 8]	17	0	1	0	n/a	n/a	0.0	0	0	0	FR2	2	R1030J
1275.915	0.02	1613128	STOP	n/a	n/a	n/a	-999	12	[-999, -999, -999]	n/a	0	1	0	n/a	n/a	0.0	0	0	0	FR2	2	R1030J
1275.935	1.236	1613148	DISTRACT_END	n/a	n/a	n/a	-999	12	[0, 0, 0]	n/a	0	1	0	n/a	n/a	0.0	0	0	0	FR2	2	R1030J
1277.171	2.157	1614384	REC_START	n/a	n/a	n/a	-999	12	[0, 0, 0]	n/a	0	1	0	n/a	n/a	0.0	0	0	0	FR2	2	R1030J
1279.328	1.83	1616541	REC_WORD	2.157	n/a	HOLE	-999	12	[0, 0, 0]	n/a	0	1	0	n/a	n/a	0.0	0	0	0	FR2	2	R1030J
1281.158	9.538	1618371	REC_WORD	3.987	n/a	MUD	-999	12	[0, 0, 0]	n/a	0	1	0	n/a	n/a	0.0	0	0	0	FR2	2	R1030J
1290.696	10.261	1627909	REC_WORD	13.525	n/a	SEED	-999	12	[0, 0, 0]	n/a	0	1	0	n/a	n/a	0.0	0	0	0	FR2	2	R1030J
1300.957	1.022	1638169	REC_WORD	23.786	n/a	SPEAR	-999	12	[0, 0, 0]	n/a	0	1	0	n/a	n/a	0.0	0	0	0	FR2	2	R1030J
1301.979	5.206	1639191	REC_WORD	24.808	n/a	JEEP	-999	12	[0, 0, 0]	n/a	0	1	0	n/a	n/a	0.0	0	0	0	FR2	2	R1030J
1307.185	2.407	1644397	REC_END	n/a	n/a	n/a	-999	12	[0, 0, 0]	n/a	0	1	0	n/a	n/a	0.0	0	0	0	FR2	2	R1030J
1309.592	10.0	1646804	COUNTDOWN_START	n/a	n/a	n/a	-999	13	[0, 0, 0]	n/a	0	1	0	n/a	n/a	0.0	0	0	0	FR2	2	R1030J
1309.592	10.428	1646804	TRIAL	n/a	n/a	n/a	-999	13	[0, 0, 0]	n/a	0	1	0	n/a	n/a	0.0	0	0	0	FR2	2	R1030J
1320.02	0.006	1657232	COUNTDOWN_END	n/a	n/a	n/a	-999	13	[0, 0, 0]	n/a	0	1	0	n/a	n/a	0.0	0	0	0	FR2	2	R1030J
1320.026	1.6	1657238	ORIENT	n/a	n/a	n/a	-999	13	[0, 0, 0]	n/a	0	1	0	n/a	n/a	0.0	0	0	0	FR2	2	R1030J
1322.43	1.6	1659642	WORD	n/a	wordpools/wordpool_EN.txt	FACE	1	13	[0, 0, 0]	n/a	0	1	0	n/a	n/a	0.0	0	0	0	FR2	2	R1030J
1324.867	1.6	1662079	WORD	n/a	wordpools/wordpool_EN.txt	PEARL	2	13	[0, 0, 0]	n/a	0	1	0	n/a	n/a	0.0	0	0	0	FR2	2	R1030J
1327.08	4.6	1664292	STIM_ON	n/a	n/a	n/a	-999	13	[0, 0, 0]	n/a	1	1	4600	LQ1	LQ2	500.0	50	230	300	FR2	2	R1030J
1327.288	1.6	1664500	WORD	n/a	wordpools/wordpool_EN.txt	BEAN	3	13	[0, 0, 0]	n/a	1	1	4600	LQ1	LQ2	500.0	50	230	300	FR2	2	R1030J
1329.709	1.6	1666921	WORD	n/a	wordpools/wordpool_EN.txt	BOMB	4	13	[0, 0, 0]	n/a	1	1	4600	LQ1	LQ2	500.0	50	230	300	FR2	2	R1030J
1332.23	1.6	1669442	WORD	n/a	wordpools/wordpool_EN.txt	SOAP	5	13	[0, 0, 0]	n/a	0	1	0	n/a	n/a	0.0	0	0	0	FR2	2	R1030J
1334.834	1.6	1672046	WORD	n/a	wordpools/wordpool_EN.txt	WAVE	6	13	[0, 0, 0]	n/a	0	1	0	n/a	n/a	0.0	0	0	0	FR2	2	R1030J
1337.187	4.6	1674399	STIM_ON	n/a	n/a	n/a	-999	13	[0, 0, 0]	n/a	1	1	4600	LQ1	LQ2	500.0	50	230	300	FR2	2	R1030J
1337.405	1.6	1674617	WORD	n/a	wordpools/wordpool_EN.txt	SMOKE	7	13	[0, 0, 0]	n/a	1	1	4600	LQ1	LQ2	500.0	50	230	300	FR2	2	R1030J
1339.926	1.6	1677138	WORD	n/a	wordpools/wordpool_EN.txt	PASTE	8	13	[0, 0, 0]	n/a	1	1	4600	LQ1	LQ2	500.0	50	230	300	FR2	2	R1030J
1342.297	1.6	1679509	WORD	n/a	wordpools/wordpool_EN.txt	PALM	9	13	[0, 0, 0]	n/a	0	1	0	n/a	n/a	0.0	0	0	0	FR2	2	R1030J
1344.717	1.6	1681929	WORD	n/a	wordpools/wordpool_EN.txt	CHIN	10	13	[0, 0, 0]	n/a	0	1	0	n/a	n/a	0.0	0	0	0	FR2	2	R1030J
1347.013	4.6	1684225	STIM_ON	n/a	n/a	n/a	-999	13	[0, 0, 0]	n/a	1	1	4600	LQ1	LQ2	500.0	50	230	300	FR2	2	R1030J
1347.222	1.6	1684434	WORD	n/a	wordpools/wordpool_EN.txt	FUDGE	11	13	[0, 0, 0]	n/a	1	1	4600	LQ1	LQ2	500.0	50	230	300	FR2	2	R1030J
1349.843	1.6	1687055	WORD	n/a	wordpools/wordpool_EN.txt	PET	12	13	[0, 0, 0]	n/a	1	1	4600	LQ1	LQ2	500.0	50	230	300	FR2	2	R1030J
1351.463	0.001	1688675	DISTRACT_START	n/a	n/a	n/a	-999	13	[0, 0, 0]	n/a	1	1	4600	LQ1	LQ2	500.0	50	230	300	FR2	2	R1030J
1351.464	0.016	1688676	START	n/a	n/a	n/a	-999	13	[-999, -999, -999]	n/a	0	1	0	n/a	n/a	0.0	0	0	0	FR2	2	R1030J
1351.48	3.238	1688692	PROB	3.203	n/a	n/a	-999	13	[1, 8, 4]	13	0	1	0	n/a	n/a	0.0	0	0	0	FR2	2	R1030J
1354.718	1.737	1691930	PROB	1.701	n/a	n/a	-999	13	[1, 4, 1]	6	0	1	0	n/a	n/a	0.0	0	0	0	FR2	2	R1030J
1356.455	2.503	1693667	PROB	2.468	n/a	n/a	-999	13	[3, 8, 2]	13	0	1	0	n/a	n/a	0.0	0	0	0	FR2	2	R1030J
1358.958	2.187	1696170	PROB	2.165	n/a	n/a	-999	13	[9, 9, 1]	19	0	1	0	n/a	n/a	0.0	0	0	0	FR2	2	R1030J
1361.145	3.289	1698357	PROB	3.258	n/a	n/a	-999	13	[7, 4, 5]	16	0	1	0	n/a	n/a	0.0	0	0	0	FR2	2	R1030J
1364.434	3.073	1701646	PROB	3.05	n/a	n/a	-999	13	[3, 6, 9]	18	0	1	0	n/a	n/a	0.0	0	0	0	FR2	2	R1030J
1367.507	2.203	1704719	PROB	2.176	n/a	n/a	-999	13	[8, 4, 1]	13	0	1	0	n/a	n/a	0.0	0	0	0	FR2	2	R1030J
1369.71	3.005	1706922	PROB	3.005	n/a	n/a	-999	13	[7, 7, 9]	23	0	1	0	n/a	n/a	0.0	0	0	0	FR2	2	R1030J
1372.715	0.016	1709927	STOP	n/a	n/a	n/a	-999	13	[-999, -999, -999]	n/a	0	1	0	n/a	n/a	0.0	0	0	0	FR2	2	R1030J
1372.731	1.169	1709943	DISTRACT_END	n/a	n/a	n/a	-999	13	[0, 0, 0]	n/a	0	1	0	n/a	n/a	0.0	0	0	0	FR2	2	R1030J
1373.9	4.14	1711112	REC_START	n/a	n/a	n/a	-999	13	[0, 0, 0]	n/a	0	1	0	n/a	n/a	0.0	0	0	0	FR2	2	R1030J
1378.04	10.805	1715252	REC_WORD_VV	4.14	n/a	<>	-999	13	[0, 0, 0]	n/a	0	1	0	n/a	n/a	0.0	0	0	0	FR2	2	R1030J
1388.845	14.116	1726057	REC_WORD	14.945	n/a	SWAMP	-999	13	[0, 0, 0]	n/a	0	1	0	n/a	n/a	0.0	0	0	0	FR2	2	R1030J
1402.961	0.963	1740172	REC_WORD	29.061	n/a	STAR	-999	13	[0, 0, 0]	n/a	0	1	0	n/a	n/a	0.0	0	0	0	FR2	2	R1030J
1403.924	3.165	1741135	REC_END	n/a	n/a	n/a	-999	13	[0, 0, 0]	n/a	0	1	0	n/a	n/a	0.0	0	0	0	FR2	2	R1030J
1407.089	0.0	1744300	TRIAL	n/a	n/a	n/a	-999	14	[0, 0, 0]	n/a	0	1	0	n/a	n/a	0.0	0	0	0	FR2	2	R1030J
1407.089	10.0	1744300	COUNTDOWN_START	n/a	n/a	n/a	-999	14	[0, 0, 0]	n/a	0	1	0	n/a	n/a	0.0	0	0	0	FR2	2	R1030J
1417.517	0.007	1754728	COUNTDOWN_END	n/a	n/a	n/a	-999	14	[0, 0, 0]	n/a	0	1	0	n/a	n/a	0.0	0	0	0	FR2	2	R1030J
1417.524	1.6	1754735	ORIENT	n/a	n/a	n/a	-999	14	[0, 0, 0]	n/a	0	1	0	n/a	n/a	0.0	0	0	0	FR2	2	R1030J
1419.899	4.6	1757110	STIM_ON	n/a	n/a	n/a	-999	14	[0, 0, 0]	n/a	1	1	4600	LQ1	LQ2	500.0	50	230	300	FR2	2	R1030J
1420.111	1.6	1757322	WORD	n/a	wordpools/wordpool_EN.txt	ROPE	1	14	[0, 0, 0]	n/a	1	1	4600	LQ1	LQ2	500.0	50	230	300	FR2	2	R1030J
1422.615	1.6	1759826	WORD	n/a	wordpools/wordpool_EN.txt	LAND	2	14	[0, 0, 0]	n/a	1	1	4600	LQ1	LQ2	500.0	50	230	300	FR2	2	R1030J
1425.153	1.6	1762364	WORD	n/a	wordpools/wordpool_EN.txt	LIP	3	14	[0, 0, 0]	n/a	0	1	0	n/a	n/a	0.0	0	0	0	FR2	2	R1030J
1427.607	1.6	1764818	WORD	n/a	wordpools/wordpool_EN.txt	MOON	4	14	[0, 0, 0]	n/a	0	1	0	n/a	n/a	0.0	0	0	0	FR2	2	R1030J
1430.003	4.6	1767214	STIM_ON	n/a	n/a	n/a	-999	14	[0, 0, 0]	n/a	1	1	4600	LQ1	LQ2	500.0	50	230	300	FR2	2	R1030J
1430.211	1.6	1767422	WORD	n/a	wordpools/wordpool_EN.txt	BED	5	14	[0, 0, 0]	n/a	1	1	4600	LQ1	LQ2	500.0	50	230	300	FR2	2	R1030J
1432.682	1.6	1769893	WORD	n/a	wordpools/wordpool_EN.txt	FOOD	6	14	[0, 0, 0]	n/a	1	1	4600	LQ1	LQ2	500.0	50	230	300	FR2	2	R1030J
1435.086	1.6	1772297	WORD	n/a	wordpools/wordpool_EN.txt	CRANE	7	14	[0, 0, 0]	n/a	0	1	0	n/a	n/a	0.0	0	0	0	FR2	2	R1030J
1437.525	1.6	1774736	WORD	n/a	wordpools/wordpool_EN.txt	POLE	8	14	[0, 0, 0]	n/a	0	1	0	n/a	n/a	0.0	0	0	0	FR2	2	R1030J
1439.778	4.6	1776989	STIM_ON	n/a	n/a	n/a	-999	14	[0, 0, 0]	n/a	1	1	4600	LQ1	LQ2	500.0	50	230	300	FR2	2	R1030J
1439.994	1.6	1777205	WORD	n/a	wordpools/wordpool_EN.txt	COUCH	9	14	[0, 0, 0]	n/a	1	1	4600	LQ1	LQ2	500.0	50	230	300	FR2	2	R1030J
1442.55	1.6	1779761	WORD	n/a	wordpools/wordpool_EN.txt	MAIL	10	14	[0, 0, 0]	n/a	1	1	4600	LQ1	LQ2	500.0	50	230	300	FR2	2	R1030J
1445.036	1.6	1782247	WORD	n/a	wordpools/wordpool_EN.txt	SHEEP	11	14	[0, 0, 0]	n/a	0	1	0	n/a	n/a	0.0	0	0	0	FR2	2	R1030J
1447.525	1.6	1784736	WORD	n/a	wordpools/wordpool_EN.txt	SLUSH	12	14	[0, 0, 0]	n/a	0	1	0	n/a	n/a	0.0	0	0	0	FR2	2	R1030J
1449.143	0.001	1786354	DISTRACT_START	n/a	n/a	n/a	-999	14	[0, 0, 0]	n/a	0	1	0	n/a	n/a	0.0	0	0	0	FR2	2	R1030J
1449.144	0.016	1786355	START	n/a	n/a	n/a	-999	14	[-999, -999, -999]	n/a	0	1	0	n/a	n/a	0.0	0	0	0	FR2	2	R1030J
1449.16	3.239	1786371	PROB	3.203	n/a	n/a	-999	14	[8, 4, 5]	17	0	1	0	n/a	n/a	0.0	0	0	0	FR2	2	R1030J
1452.399	3.689	1789610	PROB	3.66	n/a	n/a	-999	14	[5, 7, 4]	16	0	1	0	n/a	n/a	0.0	0	0	0	FR2	2	R1030J
1456.088	3.155	1793299	PROB	3.131	n/a	n/a	-999	14	[8, 5, 4]	17	0	1	0	n/a	n/a	0.0	0	0	0	FR2	2	R1030J
1459.243	1.987	1796454	PROB	1.96	n/a	n/a	-999	14	[5, 1, 1]	7	0	1	0	n/a	n/a	0.0	0	0	0	FR2	2	R1030J
1461.23	4.024	1798441	PROB	3.997	n/a	n/a	-999	14	[5, 9, 1]	15	0	1	0	n/a	n/a	0.0	0	0	0	FR2	2	R1030J
1465.254	3.856	1802465	PROB	3.821	n/a	n/a	-999	14	[2, 7, 4]	13	0	1	0	n/a	n/a	0.0	0	0	0	FR2	2	R1030J
1469.11	2.077	1806321	PROB	2.077	n/a	n/a	-999	14	[1, 9, 1]	11	0	1	0	n/a	n/a	0.0	0	0	0	FR2	2	R1030J
1471.187	0.01	1808398	STOP	n/a	n/a	n/a	-999	14	[-999, -999, -999]	n/a	0	1	0	n/a	n/a	0.0	0	0	0	FR2	2	R1030J
1471.197	1.052	1808408	DISTRACT_END	n/a	n/a	n/a	-999	14	[0, 0, 0]	n/a	0	1	0	n/a	n/a	0.0	0	0	0	FR2	2	R1030J
1472.249	3.917	1809460	REC_START	n/a	n/a	n/a	-999	14	[0, 0, 0]	n/a	0	1	0	n/a	n/a	0.0	0	0	0	FR2	2	R1030J
1476.166	1.355	1813377	REC_WORD	3.917	n/a	HOLE	-999	14	[0, 0, 0]	n/a	0	1	0	n/a	n/a	0.0	0	0	0	FR2	2	R1030J
1477.521	2.859	1814732	REC_WORD	5.272	n/a	SHEEP	-999	14	[0, 0, 0]	n/a	0	1	0	n/a	n/a	0.0	0	0	0	FR2	2	R1030J
1480.38	3.208	1817591	REC_WORD	8.131	n/a	POLE	-999	14	[0, 0, 0]	n/a	0	1	0	n/a	n/a	0.0	0	0	0	FR2	2	R1030J
1483.588	2.117	1820799	REC_WORD	11.339	n/a	MAZE	-999	14	[0, 0, 0]	n/a	0	1	0	n/a	n/a	0.0	0	0	0	FR2	2	R1030J
1485.705	5.542	1822916	REC_WORD	13.456	n/a	PET	-999	14	[0, 0, 0]	n/a	0	1	0	n/a	n/a	0.0	0	0	0	FR2	2	R1030J
1491.247	11.025	1828458	REC_WORD	18.998	n/a	MOON	-999	14	[0, 0, 0]	n/a	0	1	0	n/a	n/a	0.0	0	0	0	FR2	2	R1030J
1502.272	2.465	1839482	REC_END	n/a	n/a	n/a	-999	14	[0, 0, 0]	n/a	0	1	0	n/a	n/a	0.0	0	0	0	FR2	2	R1030J
1504.737	0.0	1841947	TRIAL	n/a	n/a	n/a	-999	15	[0, 0, 0]	n/a	0	0	0	n/a	n/a	0.0	0	0	0	FR2	2	R1030J
1504.737	10.0	1841947	COUNTDOWN_START	n/a	n/a	n/a	-999	15	[0, 0, 0]	n/a	0	0	0	n/a	n/a	0.0	0	0	0	FR2	2	R1030J
1515.165	0.006	1852375	COUNTDOWN_END	n/a	n/a	n/a	-999	15	[0, 0, 0]	n/a	0	0	0	n/a	n/a	0.0	0	0	0	FR2	2	R1030J
1515.171	1.6	1852381	ORIENT	n/a	n/a	n/a	-999	15	[0, 0, 0]	n/a	0	0	0	n/a	n/a	0.0	0	0	0	FR2	2	R1030J
1517.775	1.6	1854985	WORD	n/a	wordpools/wordpool_EN.txt	CANE	1	15	[0, 0, 0]	n/a	0	0	0	n/a	n/a	0.0	0	0	0	FR2	2	R1030J
1520.33	1.6	1857540	WORD	n/a	wordpools/wordpool_EN.txt	MOLE	2	15	[0, 0, 0]	n/a	0	0	0	n/a	n/a	0.0	0	0	0	FR2	2	R1030J
1522.834	1.6	1860044	WORD	n/a	wordpools/wordpool_EN.txt	CUBE	3	15	[0, 0, 0]	n/a	0	0	0	n/a	n/a	0.0	0	0	0	FR2	2	R1030J
1525.321	1.6	1862531	WORD	n/a	wordpools/wordpool_EN.txt	OAK	4	15	[0, 0, 0]	n/a	0	0	0	n/a	n/a	0.0	0	0	0	FR2	2	R1030J
1527.892	1.6	1865102	WORD	n/a	wordpools/wordpool_EN.txt	BOY	5	15	[0, 0, 0]	n/a	0	0	0	n/a	n/a	0.0	0	0	0	FR2	2	R1030J
1530.43	1.6	1867640	WORD	n/a	wordpools/wordpool_EN.txt	ANT	6	15	[0, 0, 0]	n/a	0	0	0	n/a	n/a	0.0	0	0	0	FR2	2	R1030J
1533.034	1.6	1870244	WORD	n/a	wordpools/wordpool_EN.txt	DEER	7	15	[0, 0, 0]	n/a	0	0	0	n/a	n/a	0.0	0	0	0	FR2	2	R1030J
1535.605	1.6	1872815	WORD	n/a	wordpools/wordpool_EN.txt	DIME	8	15	[0, 0, 0]	n/a	0	0	0	n/a	n/a	0.0	0	0	0	FR2	2	R1030J
1538.143	1.6	1875353	WORD	n/a	wordpools/wordpool_EN.txt	BRICK	9	15	[0, 0, 0]	n/a	0	0	0	n/a	n/a	0.0	0	0	0	FR2	2	R1030J
1540.731	1.6	1877941	WORD	n/a	wordpools/wordpool_EN.txt	STEAM	10	15	[0, 0, 0]	n/a	0	0	0	n/a	n/a	0.0	0	0	0	FR2	2	R1030J
1543.168	1.6	1880378	WORD	n/a	wordpools/wordpool_EN.txt	BENCH	11	15	[0, 0, 0]	n/a	0	0	0	n/a	n/a	0.0	0	0	0	FR2	2	R1030J
1545.706	1.6	1882916	WORD	n/a	wordpools/wordpool_EN.txt	PIG	12	15	[0, 0, 0]	n/a	0	0	0	n/a	n/a	0.0	0	0	0	FR2	2	R1030J
1547.325	0.001	1884535	DISTRACT_START	n/a	n/a	n/a	-999	15	[0, 0, 0]	n/a	0	0	0	n/a	n/a	0.0	0	0	0	FR2	2	R1030J
1547.326	0.016	1884536	START	n/a	n/a	n/a	-999	15	[-999, -999, -999]	n/a	0	0	0	n/a	n/a	0.0	0	0	0	FR2	2	R1030J
1547.342	3.923	1884552	PROB	3.885	n/a	n/a	-999	15	[4, 4, 6]	14	0	0	0	n/a	n/a	0.0	0	0	0	FR2	2	R1030J
1551.265	2.671	1888475	PROB	2.642	n/a	n/a	-999	15	[3, 6, 6]	15	0	0	0	n/a	n/a	0.0	0	0	0	FR2	2	R1030J
1553.936	4.775	1891146	PROB	4.747	n/a	n/a	-999	15	[8, 7, 9]	24	0	0	0	n/a	n/a	0.0	0	0	0	FR2	2	R1030J
1558.711	3.723	1895921	PROB	3.692	n/a	n/a	-999	15	[4, 9, 2]	15	0	0	0	n/a	n/a	0.0	0	0	0	FR2	2	R1030J
1562.434	5.042	1899644	PROB	5.042	n/a	n/a	-999	15	[7, 5, 4]	16	0	0	0	n/a	n/a	0.0	0	0	0	FR2	2	R1030J
1567.476	0.017	1904686	STOP	n/a	n/a	n/a	-999	15	[-999, -999, -999]	n/a	0	0	0	n/a	n/a	0.0	0	0	0	FR2	2	R1030J
1567.493	1.102	1904703	DISTRACT_END	n/a	n/a	n/a	-999	15	[0, 0, 0]	n/a	0	0	0	n/a	n/a	0.0	0	0	0	FR2	2	R1030J
1568.595	11.75	1905805	REC_START	n/a	n/a	n/a	-999	15	[0, 0, 0]	n/a	0	0	0	n/a	n/a	0.0	0	0	0	FR2	2	R1030J
1580.345	1.317	1917555	REC_WORD	11.75	n/a	ANT	-999	15	[0, 0, 0]	n/a	0	0	0	n/a	n/a	0.0	0	0	0	FR2	2	R1030J
1581.662	2.601	1918872	REC_WORD	13.067	n/a	LAMP	-999	15	[0, 0, 0]	n/a	0	0	0	n/a	n/a	0.0	0	0	0	FR2	2	R1030J
1584.263	2.829	1921473	REC_WORD	15.668	n/a	MOLE	-999	15	[0, 0, 0]	n/a	0	0	0	n/a	n/a	0.0	0	0	0	FR2	2	R1030J
1587.092	3.892	1924302	REC_WORD	18.497	n/a	STEAM	-999	15	[0, 0, 0]	n/a	0	0	0	n/a	n/a	0.0	0	0	0	FR2	2	R1030J
1590.984	2.236	1928194	REC_WORD	22.389	n/a	TREE	-999	15	[0, 0, 0]	n/a	0	0	0	n/a	n/a	0.0	0	0	0	FR2	2	R1030J
1593.22	5.389	1930430	REC_WORD	24.625	n/a	BRANCH	-999	15	[0, 0, 0]	n/a	0	0	0	n/a	n/a	0.0	0	0	0	FR2	2	R1030J
1598.609	2.506	1935818	REC_END	n/a	n/a	n/a	-999	15	[0, 0, 0]	n/a	0	0	0	n/a	n/a	0.0	0	0	0	FR2	2	R1030J
1601.115	10.0	1938324	COUNTDOWN_START	n/a	n/a	n/a	-999	16	[0, 0, 0]	n/a	0	1	0	n/a	n/a	0.0	0	0	0	FR2	2	R1030J
1601.116	10.427	1938325	TRIAL	n/a	n/a	n/a	-999	16	[0, 0, 0]	n/a	0	1	0	n/a	n/a	0.0	0	0	0	FR2	2	R1030J
1611.543	0.008	1948752	COUNTDOWN_END	n/a	n/a	n/a	-999	16	[0, 0, 0]	n/a	0	1	0	n/a	n/a	0.0	0	0	0	FR2	2	R1030J
1611.551	1.6	1948760	ORIENT	n/a	n/a	n/a	-999	16	[0, 0, 0]	n/a	0	1	0	n/a	n/a	0.0	0	0	0	FR2	2	R1030J
1614.004	1.6	1951213	WORD	n/a	wordpools/wordpool_EN.txt	SPEAR	1	16	[0, 0, 0]	n/a	0	1	0	n/a	n/a	0.0	0	0	0	FR2	2	R1030J
1616.509	1.6	1953718	WORD	n/a	wordpools/wordpool_EN.txt	SUN	2	16	[0, 0, 0]	n/a	0	1	0	n/a	n/a	0.0	0	0	0	FR2	2	R1030J
1618.847	4.6	1956056	STIM_ON	n/a	n/a	n/a	-999	16	[0, 0, 0]	n/a	1	1	4600	LQ1	LQ2	500.0	50	230	300	FR2	2	R1030J
1619.062	1.6	1956271	WORD	n/a	wordpools/wordpool_EN.txt	EAR	3	16	[0, 0, 0]	n/a	1	1	4600	LQ1	LQ2	500.0	50	230	300	FR2	2	R1030J
1621.484	1.6	1958693	WORD	n/a	wordpools/wordpool_EN.txt	SHEET	4	16	[0, 0, 0]	n/a	1	1	4600	LQ1	LQ2	500.0	50	230	300	FR2	2	R1030J
1624.004	1.6	1961213	WORD	n/a	wordpools/wordpool_EN.txt	CLOWN	5	16	[0, 0, 0]	n/a	0	1	0	n/a	n/a	0.0	0	0	0	FR2	2	R1030J
1626.493	1.6	1963702	WORD	n/a	wordpools/wordpool_EN.txt	TRASH	6	16	[0, 0, 0]	n/a	0	1	0	n/a	n/a	0.0	0	0	0	FR2	2	R1030J
1628.817	4.6	1966026	STIM_ON	n/a	n/a	n/a	-999	16	[0, 0, 0]	n/a	1	1	4600	LQ1	LQ2	500.0	50	230	300	FR2	2	R1030J
1629.029	1.6	1966238	WORD	n/a	wordpools/wordpool_EN.txt	PARK	7	16	[0, 0, 0]	n/a	1	1	4600	LQ1	LQ2	500.0	50	230	300	FR2	2	R1030J
1631.583	1.6	1968792	WORD	n/a	wordpools/wordpool_EN.txt	SNAKE	8	16	[0, 0, 0]	n/a	1	1	4600	LQ1	LQ2	500.0	50	230	300	FR2	2	R1030J
1634.204	1.6	1971413	WORD	n/a	wordpools/wordpool_EN.txt	BRUSH	9	16	[0, 0, 0]	n/a	0	1	0	n/a	n/a	0.0	0	0	0	FR2	2	R1030J
1636.792	1.6	1974001	WORD	n/a	wordpools/wordpool_EN.txt	TOAD	10	16	[0, 0, 0]	n/a	0	1	0	n/a	n/a	0.0	0	0	0	FR2	2	R1030J
1639.032	4.6	1976241	STIM_ON	n/a	n/a	n/a	-999	16	[0, 0, 0]	n/a	1	1	4600	LQ1	LQ2	500.0	50	230	300	FR2	2	R1030J
1639.246	1.6	1976455	WORD	n/a	wordpools/wordpool_EN.txt	FROG	11	16	[0, 0, 0]	n/a	1	1	4600	LQ1	LQ2	500.0	50	230	300	FR2	2	R1030J
1641.867	1.6	1979076	WORD	n/a	wordpools/wordpool_EN.txt	THUMB	12	16	[0, 0, 0]	n/a	1	1	4600	LQ1	LQ2	500.0	50	230	300	FR2	2	R1030J
1643.471	0.001	1980680	DISTRACT_START	n/a	n/a	n/a	-999	16	[0, 0, 0]	n/a	1	1	4600	LQ1	LQ2	500.0	50	230	300	FR2	2	R1030J
1643.472	0.016	1980681	START	n/a	n/a	n/a	-999	16	[-999, -999, -999]	n/a	0	1	0	n/a	n/a	0.0	0	0	0	FR2	2	R1030J
1643.488	3.021	1980697	PROB	2.988	n/a	n/a	-999	16	[6, 4, 1]	11	0	1	0	n/a	n/a	0.0	0	0	0	FR2	2	R1030J
1646.509	3.121	1983718	PROB	3.094	n/a	n/a	-999	16	[2, 6, 1]	9	0	1	0	n/a	n/a	0.0	0	0	0	FR2	2	R1030J
1649.63	3.74	1986839	PROB	3.701	n/a	n/a	-999	16	[2, 4, 7]	13	0	1	0	n/a	n/a	0.0	0	0	0	FR2	2	R1030J
1653.37	3.656	1990579	PROB	3.633	n/a	n/a	-999	16	[7, 8, 2]	17	0	1	0	n/a	n/a	0.0	0	0	0	FR2	2	R1030J
1657.026	3.773	1994235	PROB	3.737	n/a	n/a	-999	16	[6, 7, 4]	17	0	1	0	n/a	n/a	0.0	0	0	0	FR2	2	R1030J
1660.799	2.884	1998008	PROB	2.884	n/a	n/a	-999	16	[9, 1, 5]	15	0	1	0	n/a	n/a	0.0	0	0	0	FR2	2	R1030J
1663.683	0.021	2000892	STOP	n/a	n/a	n/a	-999	16	[-999, -999, -999]	n/a	0	1	0	n/a	n/a	0.0	0	0	0	FR2	2	R1030J
1663.704	1.153	2000913	DISTRACT_END	n/a	n/a	n/a	-999	16	[0, 0, 0]	n/a	0	1	0	n/a	n/a	0.0	0	0	0	FR2	2	R1030J
1664.857	6.875	2002066	REC_START	n/a	n/a	n/a	-999	16	[0, 0, 0]	n/a	0	1	0	n/a	n/a	0.0	0	0	0	FR2	2	R1030J
1671.732	2.577	2008941	REC_WORD	6.875	n/a	SPEAR	-999	16	[0, 0, 0]	n/a	0	1	0	n/a	n/a	0.0	0	0	0	FR2	2	R1030J
1674.309	10.78	2011518	REC_WORD	9.452	n/a	CLOWN	-999	16	[0, 0, 0]	n/a	0	1	0	n/a	n/a	0.0	0	0	0	FR2	2	R1030J
1685.089	8.427	2022298	REC_WORD	20.232	n/a	SUN	-999	16	[0, 0, 0]	n/a	0	1	0	n/a	n/a	0.0	0	0	0	FR2	2	R1030J
1693.516	1.356	2030724	REC_WORD	28.659	n/a	TREE	-999	16	[0, 0, 0]	n/a	0	1	0	n/a	n/a	0.0	0	0	0	FR2	2	R1030J
1694.872	2.69	2032080	REC_END	n/a	n/a	n/a	-999	16	[0, 0, 0]	n/a	0	1	0	n/a	n/a	0.0	0	0	0	FR2	2	R1030J
1697.562	0.0	2034770	TRIAL	n/a	n/a	n/a	-999	17	[0, 0, 0]	n/a	0	1	0	n/a	n/a	0.0	0	0	0	FR2	2	R1030J
1697.562	10.0	2034770	COUNTDOWN_START	n/a	n/a	n/a	-999	17	[0, 0, 0]	n/a	0	1	0	n/a	n/a	0.0	0	0	0	FR2	2	R1030J
1707.99	0.005	2045198	COUNTDOWN_END	n/a	n/a	n/a	-999	17	[0, 0, 0]	n/a	0	1	0	n/a	n/a	0.0	0	0	0	FR2	2	R1030J
1707.995	1.6	2045203	ORIENT	n/a	n/a	n/a	-999	17	[0, 0, 0]	n/a	0	1	0	n/a	n/a	0.0	0	0	0	FR2	2	R1030J
1710.242	4.6	2047450	STIM_ON	n/a	n/a	n/a	-999	17	[0, 0, 0]	n/a	1	1	4600	LQ1	LQ2	500.0	50	230	300	FR2	2	R1030J
1710.451	1.6	2047659	WORD	n/a	wordpools/wordpool_EN.txt	CALF	1	17	[0, 0, 0]	n/a	1	1	4600	LQ1	LQ2	500.0	50	230	300	FR2	2	R1030J
1712.97	1.6	2050178	WORD	n/a	wordpools/wordpool_EN.txt	STEAK	2	17	[0, 0, 0]	n/a	1	1	4600	LQ1	LQ2	500.0	50	230	300	FR2	2	R1030J
1715.492	1.6	2052700	WORD	n/a	wordpools/wordpool_EN.txt	SEAL	3	17	[0, 0, 0]	n/a	0	1	0	n/a	n/a	0.0	0	0	0	FR2	2	R1030J
1718.029	1.6	2055237	WORD	n/a	wordpools/wordpool_EN.txt	SOCK	4	17	[0, 0, 0]	n/a	0	1	0	n/a	n/a	0.0	0	0	0	FR2	2	R1030J
1720.339	4.6	2057547	STIM_ON	n/a	n/a	n/a	-999	17	[0, 0, 0]	n/a	1	1	4600	LQ1	LQ2	500.0	50	230	300	FR2	2	R1030J
1720.551	1.6	2057759	WORD	n/a	wordpools/wordpool_EN.txt	BAND	5	17	[0, 0, 0]	n/a	1	1	4600	LQ1	LQ2	500.0	50	230	300	FR2	2	R1030J
1723.087	1.6	2060295	WORD	n/a	wordpools/wordpool_EN.txt	YARD	6	17	[0, 0, 0]	n/a	1	1	4600	LQ1	LQ2	500.0	50	230	300	FR2	2	R1030J
1725.658	1.6	2062866	WORD	n/a	wordpools/wordpool_EN.txt	HOOF	7	17	[0, 0, 0]	n/a	0	1	0	n/a	n/a	0.0	0	0	0	FR2	2	R1030J
1728.179	1.6	2065387	WORD	n/a	wordpools/wordpool_EN.txt	MOUSE	8	17	[0, 0, 0]	n/a	0	1	0	n/a	n/a	0.0	0	0	0	FR2	2	R1030J
1730.519	4.6	2067727	STIM_ON	n/a	n/a	n/a	-999	17	[0, 0, 0]	n/a	1	1	4600	LQ1	LQ2	500.0	50	230	300	FR2	2	R1030J
1730.734	1.6	2067942	WORD	n/a	wordpools/wordpool_EN.txt	CAT	9	17	[0, 0, 0]	n/a	1	1	4600	LQ1	LQ2	500.0	50	230	300	FR2	2	R1030J
1733.271	1.6	2070479	WORD	n/a	wordpools/wordpool_EN.txt	VAN	10	17	[0, 0, 0]	n/a	1	1	4600	LQ1	LQ2	500.0	50	230	300	FR2	2	R1030J
1735.775	1.6	2072983	WORD	n/a	wordpools/wordpool_EN.txt	FENCE	11	17	[0, 0, 0]	n/a	0	1	0	n/a	n/a	0.0	0	0	0	FR2	2	R1030J
1738.213	1.6	2075421	WORD	n/a	wordpools/wordpool_EN.txt	SKI	12	17	[0, 0, 0]	n/a	0	1	0	n/a	n/a	0.0	0	0	0	FR2	2	R1030J
1739.832	0.001	2077040	DISTRACT_START	n/a	n/a	n/a	-999	17	[0, 0, 0]	n/a	0	1	0	n/a	n/a	0.0	0	0	0	FR2	2	R1030J
1739.833	0.016	2077041	START	n/a	n/a	n/a	-999	17	[-999, -999, -999]	n/a	0	1	0	n/a	n/a	0.0	0	0	0	FR2	2	R1030J
1739.849	2.888	2077057	PROB	2.858	n/a	n/a	-999	17	[2, 5, 5]	12	0	1	0	n/a	n/a	0.0	0	0	0	FR2	2	R1030J
1742.737	2.671	2079945	PROB	2.642	n/a	n/a	-999	17	[2, 5, 2]	9	0	1	0	n/a	n/a	0.0	0	0	0	FR2	2	R1030J
1745.408	2.722	2082616	PROB	2.699	n/a	n/a	-999	17	[8, 4, 8]	20	0	1	0	n/a	n/a	0.0	0	0	0	FR2	2	R1030J
1748.13	5.576	2085338	PROB	5.545	n/a	n/a	-999	17	[8, 5, 9]	22	0	1	0	n/a	n/a	0.0	0	0	0	FR2	2	R1030J
1753.706	4.859	2090914	PROB	4.826	n/a	n/a	-999	17	[5, 7, 8]	20	0	1	0	n/a	n/a	0.0	0	0	0	FR2	2	R1030J
1758.565	2.895	2095773	PROB	2.895	n/a	n/a	-999	17	[4, 3, 1]	8	0	1	0	n/a	n/a	0.0	0	0	0	FR2	2	R1030J
1761.46	0.011	2098668	STOP	n/a	n/a	n/a	-999	17	[-999, -999, -999]	n/a	0	1	0	n/a	n/a	0.0	0	0	0	FR2	2	R1030J
1761.471	1.2	2098679	DISTRACT_END	n/a	n/a	n/a	-999	17	[0, 0, 0]	n/a	0	1	0	n/a	n/a	0.0	0	0	0	FR2	2	R1030J
1762.671	7.894	2099879	REC_START	n/a	n/a	n/a	-999	17	[0, 0, 0]	n/a	0	1	0	n/a	n/a	0.0	0	0	0	FR2	2	R1030J
1770.565	1.638	2107773	REC_WORD	7.894	n/a	HOOF	-999	17	[0, 0, 0]	n/a	0	1	0	n/a	n/a	0.0	0	0	0	FR2	2	R1030J
1772.203	1.164	2109411	REC_WORD_VV	9.532	n/a	<>	-999	17	[0, 0, 0]	n/a	0	1	0	n/a	n/a	0.0	0	0	0	FR2	2	R1030J
1773.367	4.223	2110575	REC_WORD	10.696	n/a	COW	-999	17	[0, 0, 0]	n/a	0	1	0	n/a	n/a	0.0	0	0	0	FR2	2	R1030J
1777.59	1.784	2114798	REC_WORD_VV	14.919	n/a	<>	-999	17	[0, 0, 0]	n/a	0	1	0	n/a	n/a	0.0	0	0	0	FR2	2	R1030J
1779.374	3.165	2116582	REC_WORD	16.703	n/a	MAT	-999	17	[0, 0, 0]	n/a	0	1	0	n/a	n/a	0.0	0	0	0	FR2	2	R1030J
1782.539	9.968	2119747	REC_WORD	19.868	n/a	DOOR	-999	17	[0, 0, 0]	n/a	0	1	0	n/a	n/a	0.0	0	0	0	FR2	2	R1030J
1792.507	0.188	2129714	REC_WORD_VV	29.836	n/a	<>	-999	17	[0, 0, 0]	n/a	0	1	0	n/a	n/a	0.0	0	0	0	FR2	2	R1030J
1792.695	3.817	2129902	REC_END	n/a	n/a	n/a	-999	17	[0, 0, 0]	n/a	0	1	0	n/a	n/a	0.0	0	0	0	FR2	2	R1030J
1796.512	10.0	2133719	COUNTDOWN_START	n/a	n/a	n/a	-999	18	[0, 0, 0]	n/a	0	1	0	n/a	n/a	0.0	0	0	0	FR2	2	R1030J
1796.512	10.428	2133719	TRIAL	n/a	n/a	n/a	-999	18	[0, 0, 0]	n/a	0	1	0	n/a	n/a	0.0	0	0	0	FR2	2	R1030J
1806.94	0.005	2144147	COUNTDOWN_END	n/a	n/a	n/a	-999	18	[0, 0, 0]	n/a	0	1	0	n/a	n/a	0.0	0	0	0	FR2	2	R1030J
1806.945	1.6	2144152	ORIENT	n/a	n/a	n/a	-999	18	[0, 0, 0]	n/a	0	1	0	n/a	n/a	0.0	0	0	0	FR2	2	R1030J
1809.31	4.6	2146517	STIM_ON	n/a	n/a	n/a	-999	18	[0, 0, 0]	n/a	1	1	4600	LQ1	LQ2	500.0	50	230	300	FR2	2	R1030J
1809.518	1.6	2146725	WORD	n/a	wordpools/wordpool_EN.txt	SKUNK	1	18	[0, 0, 0]	n/a	1	1	4600	LQ1	LQ2	500.0	50	230	300	FR2	2	R1030J
1812.087	1.6	2149294	WORD	n/a	wordpools/wordpool_EN.txt	CLOUD	2	18	[0, 0, 0]	n/a	1	1	4600	LQ1	LQ2	500.0	50	230	300	FR2	2	R1030J
1814.542	1.6	2151749	WORD	n/a	wordpools/wordpool_EN.txt	JUICE	3	18	[0, 0, 0]	n/a	0	1	0	n/a	n/a	0.0	0	0	0	FR2	2	R1030J
1817.129	1.6	2154336	WORD	n/a	wordpools/wordpool_EN.txt	MOTH	4	18	[0, 0, 0]	n/a	0	1	0	n/a	n/a	0.0	0	0	0	FR2	2	R1030J
1819.334	4.6	2156541	STIM_ON	n/a	n/a	n/a	-999	18	[0, 0, 0]	n/a	1	1	4600	LQ1	LQ2	500.0	50	230	300	FR2	2	R1030J
1819.551	1.6	2156758	WORD	n/a	wordpools/wordpool_EN.txt	SUIT	5	18	[0, 0, 0]	n/a	1	1	4600	LQ1	LQ2	500.0	50	230	300	FR2	2	R1030J
1822.087	1.6	2159294	WORD	n/a	wordpools/wordpool_EN.txt	SNAIL	6	18	[0, 0, 0]	n/a	1	1	4600	LQ1	LQ2	500.0	50	230	300	FR2	2	R1030J
1824.575	1.6	2161782	WORD	n/a	wordpools/wordpool_EN.txt	SEA	7	18	[0, 0, 0]	n/a	0	1	0	n/a	n/a	0.0	0	0	0	FR2	2	R1030J
1826.996	1.6	2164203	WORD	n/a	wordpools/wordpool_EN.txt	SKY	8	18	[0, 0, 0]	n/a	0	1	0	n/a	n/a	0.0	0	0	0	FR2	2	R1030J
1829.393	4.6	2166600	STIM_ON	n/a	n/a	n/a	-999	18	[0, 0, 0]	n/a	1	1	4600	LQ1	LQ2	500.0	50	230	300	FR2	2	R1030J
1829.601	1.6	2166808	WORD	n/a	wordpools/wordpool_EN.txt	THREAD	9	18	[0, 0, 0]	n/a	1	1	4600	LQ1	LQ2	500.0	50	230	300	FR2	2	R1030J
1832.138	1.6	2169345	WORD	n/a	wordpools/wordpool_EN.txt	PLANE	10	18	[0, 0, 0]	n/a	1	1	4600	LQ1	LQ2	500.0	50	230	300	FR2	2	R1030J
1834.675	1.6	2171882	WORD	n/a	wordpools/wordpool_EN.txt	DART	11	18	[0, 0, 0]	n/a	0	1	0	n/a	n/a	0.0	0	0	0	FR2	2	R1030J
1837.163	1.6	2174370	WORD	n/a	wordpools/wordpool_EN.txt	WOOD	12	18	[0, 0, 0]	n/a	0	1	0	n/a	n/a	0.0	0	0	0	FR2	2	R1030J
1838.782	0.001	2175989	DISTRACT_START	n/a	n/a	n/a	-999	18	[0, 0, 0]	n/a	0	1	0	n/a	n/a	0.0	0	0	0	FR2	2	R1030J
1838.783	0.016	2175990	START	n/a	n/a	n/a	-999	18	[-999, -999, -999]	n/a	0	1	0	n/a	n/a	0.0	0	0	0	FR2	2	R1030J
1838.799	3.105	2176006	PROB	3.068	n/a	n/a	-999	18	[6, 1, 6]	13	0	1	0	n/a	n/a	0.0	0	0	0	FR2	2	R1030J
1841.904	2.304	2179111	PROB	2.275	n/a	n/a	-999	18	[2, 3, 5]	10	0	1	0	n/a	n/a	0.0	0	0	0	FR2	2	R1030J
1844.208	2.17	2181415	PROB	2.147	n/a	n/a	-999	18	[5, 5, 9]	19	0	1	0	n/a	n/a	0.0	0	0	0	FR2	2	R1030J
1846.378	2.805	2183585	PROB	2.777	n/a	n/a	-999	18	[8, 4, 7]	19	0	1	0	n/a	n/a	0.0	0	0	0	FR2	2	R1030J
1849.183	2.671	2186390	PROB	2.644	n/a	n/a	-999	18	[6, 8, 8]	22	0	1	0	n/a	n/a	0.0	0	0	0	FR2	2	R1030J
1851.854	2.321	2189061	PROB	2.285	n/a	n/a	-999	18	[8, 3, 1]	12	0	1	0	n/a	n/a	0.0	0	0	0	FR2	2	R1030J
1854.175	2.253	2191382	PROB	2.22	n/a	n/a	-999	18	[9, 7, 3]	19	0	1	0	n/a	n/a	0.0	0	0	0	FR2	2	R1030J
1856.428	2.879	2193635	PROB	2.879	n/a	n/a	-999	18	[4, 7, 3]	14	0	1	0	n/a	n/a	0.0	0	0	0	FR2	2	R1030J
1859.307	0.011	2196514	STOP	n/a	n/a	n/a	-999	18	[-999, -999, -999]	n/a	0	1	0	n/a	n/a	0.0	0	0	0	FR2	2	R1030J
1859.318	1.084	2196525	DISTRACT_END	n/a	n/a	n/a	-999	18	[0, 0, 0]	n/a	0	1	0	n/a	n/a	0.0	0	0	0	FR2	2	R1030J
1860.402	2.099	2197609	REC_START	n/a	n/a	n/a	-999	18	[0, 0, 0]	n/a	0	1	0	n/a	n/a	0.0	0	0	0	FR2	2	R1030J
1862.501	1.706	2199708	REC_WORD	2.099	n/a	THREAD	-999	18	[0, 0, 0]	n/a	0	1	0	n/a	n/a	0.0	0	0	0	FR2	2	R1030J
1864.207	2.25	2201414	REC_WORD	3.805	n/a	SKY	-999	18	[0, 0, 0]	n/a	0	1	0	n/a	n/a	0.0	0	0	0	FR2	2	R1030J
1866.457	2.018	2203664	REC_WORD	6.055	n/a	YARD	-999	18	[0, 0, 0]	n/a	0	1	0	n/a	n/a	0.0	0	0	0	FR2	2	R1030J
1868.475	1.977	2205682	REC_WORD	8.073	n/a	BARN	-999	18	[0, 0, 0]	n/a	0	1	0	n/a	n/a	0.0	0	0	0	FR2	2	R1030J
1870.452	2.207	2207659	REC_WORD	10.05	n/a	FARM	-999	18	[0, 0, 0]	n/a	0	1	0	n/a	n/a	0.0	0	0	0	FR2	2	R1030J
1872.659	8.066	2209866	REC_WORD	12.257	n/a	CLOUD	-999	18	[0, 0, 0]	n/a	0	1	0	n/a	n/a	0.0	0	0	0	FR2	2	R1030J
1880.725	3.673	2217932	REC_WORD	20.323	n/a	STICK	-999	18	[0, 0, 0]	n/a	0	1	0	n/a	n/a	0.0	0	0	0	FR2	2	R1030J
1884.398	6.029	2221605	REC_WORD	23.996	n/a	CROWN	-999	18	[0, 0, 0]	n/a	0	1	0	n/a	n/a	0.0	0	0	0	FR2	2	R1030J
1890.427	2.98	2227633	REC_END	n/a	n/a	n/a	-999	18	[0, 0, 0]	n/a	0	1	0	n/a	n/a	0.0	0	0	0	FR2	2	R1030J
1893.407	10.0	2230613	COUNTDOWN_START	n/a	n/a	n/a	-999	19	[0, 0, 0]	n/a	0	1	0	n/a	n/a	0.0	0	0	0	FR2	2	R1030J
1893.408	10.427	2230614	TRIAL	n/a	n/a	n/a	-999	19	[0, 0, 0]	n/a	0	1	0	n/a	n/a	0.0	0	0	0	FR2	2	R1030J
1903.835	0.006	2241041	COUNTDOWN_END	n/a	n/a	n/a	-999	19	[0, 0, 0]	n/a	0	1	0	n/a	n/a	0.0	0	0	0	FR2	2	R1030J
1903.841	1.6	2241047	ORIENT	n/a	n/a	n/a	-999	19	[0, 0, 0]	n/a	0	1	0	n/a	n/a	0.0	0	0	0	FR2	2	R1030J
1906.054	4.6	2243260	STIM_ON	n/a	n/a	n/a	-999	19	[0, 0, 0]	n/a	1	1	4600	LQ1	LQ2	500.0	50	230	300	FR2	2	R1030J
1906.262	1.6	2243468	WORD	n/a	wordpools/wordpool_EN.txt	COIN	1	19	[0, 0, 0]	n/a	1	1	4600	LQ1	LQ2	500.0	50	230	300	FR2	2	R1030J
1908.7	1.6	2245906	WORD	n/a	wordpools/wordpool_EN.txt	BEE	2	19	[0, 0, 0]	n/a	1	1	4600	LQ1	LQ2	500.0	50	230	300	FR2	2	R1030J
1911.321	1.6	2248527	WORD	n/a	wordpools/wordpool_EN.txt	STONE	3	19	[0, 0, 0]	n/a	0	1	0	n/a	n/a	0.0	0	0	0	FR2	2	R1030J
1913.758	1.6	2250964	WORD	n/a	wordpools/wordpool_EN.txt	TOOTH	4	19	[0, 0, 0]	n/a	0	1	0	n/a	n/a	0.0	0	0	0	FR2	2	R1030J
1916.012	4.6	2253218	STIM_ON	n/a	n/a	n/a	-999	19	[0, 0, 0]	n/a	1	1	4600	LQ1	LQ2	500.0	50	230	300	FR2	2	R1030J
1916.229	1.6	2253435	WORD	n/a	wordpools/wordpool_EN.txt	ROAD	5	19	[0, 0, 0]	n/a	1	1	4600	LQ1	LQ2	500.0	50	230	300	FR2	2	R1030J
1918.767	1.6	2255973	WORD	n/a	wordpools/wordpool_EN.txt	HAT	6	19	[0, 0, 0]	n/a	1	1	4600	LQ1	LQ2	500.0	50	230	300	FR2	2	R1030J
1921.304	1.6	2258510	WORD	n/a	wordpools/wordpool_EN.txt	BLOOM	7	19	[0, 0, 0]	n/a	0	1	0	n/a	n/a	0.0	0	0	0	FR2	2	R1030J
1923.925	1.6	2261131	WORD	n/a	wordpools/wordpool_EN.txt	BEAR	8	19	[0, 0, 0]	n/a	0	1	0	n/a	n/a	0.0	0	0	0	FR2	2	R1030J
1926.299	4.6	2263505	STIM_ON	n/a	n/a	n/a	-999	19	[0, 0, 0]	n/a	1	1	4600	LQ1	LQ2	500.0	50	230	300	FR2	2	R1030J
1926.514	1.6	2263720	WORD	n/a	wordpools/wordpool_EN.txt	DRUM	9	19	[0, 0, 0]	n/a	1	1	4600	LQ1	LQ2	500.0	50	230	300	FR2	2	R1030J
1928.967	1.6	2266173	WORD	n/a	wordpools/wordpool_EN.txt	RAKE	10	19	[0, 0, 0]	n/a	1	1	4600	LQ1	LQ2	500.0	50	230	300	FR2	2	R1030J
1931.371	1.6	2268577	WORD	n/a	wordpools/wordpool_EN.txt	SLIME	11	19	[0, 0, 0]	n/a	0	1	0	n/a	n/a	0.0	0	0	0	FR2	2	R1030J
1933.892	1.6	2271098	WORD	n/a	wordpools/wordpool_EN.txt	GEESE	12	19	[0, 0, 0]	n/a	0	1	0	n/a	n/a	0.0	0	0	0	FR2	2	R1030J
1935.512	0.001	2272718	DISTRACT_START	n/a	n/a	n/a	-999	19	[0, 0, 0]	n/a	0	1	0	n/a	n/a	0.0	0	0	0	FR2	2	R1030J
1935.513	0.016	2272719	START	n/a	n/a	n/a	-999	19	[-999, -999, -999]	n/a	0	1	0	n/a	n/a	0.0	0	0	0	FR2	2	R1030J
1935.529	3.372	2272735	PROB	3.338	n/a	n/a	-999	19	[3, 6, 6]	15	0	1	0	n/a	n/a	0.0	0	0	0	FR2	2	R1030J
1938.901	2.02	2276107	PROB	1.998	n/a	n/a	-999	19	[7, 7, 7]	21	0	1	0	n/a	n/a	0.0	0	0	0	FR2	2	R1030J
1940.921	2.37	2278127	PROB	2.346	n/a	n/a	-999	19	[7, 2, 1]	10	0	1	0	n/a	n/a	0.0	0	0	0	FR2	2	R1030J
1943.291	2.655	2280497	PROB	2.624	n/a	n/a	-999	19	[6, 2, 3]	11	0	1	0	n/a	n/a	0.0	0	0	0	FR2	2	R1030J
1945.946	2.237	2283152	PROB	2.209	n/a	n/a	-999	19	[1, 6, 2]	9	0	1	0	n/a	n/a	0.0	0	0	0	FR2	2	R1030J
1948.183	3.055	2285389	PROB	3.02	n/a	n/a	-999	19	[4, 3, 2]	9	0	1	0	n/a	n/a	0.0	0	0	0	FR2	2	R1030J
1951.238	4.057	2288444	PROB	4.029	n/a	n/a	-999	19	[5, 2, 8]	15	0	1	0	n/a	n/a	0.0	0	0	0	FR2	2	R1030J
1955.295	1.884	2292501	PROB	1.884	n/a	n/a	-999	19	[1, 3, 3]	7	0	1	0	n/a	n/a	0.0	0	0	0	FR2	2	R1030J
1957.179	0.019	2294385	STOP	n/a	n/a	n/a	-999	19	[-999, -999, -999]	n/a	0	1	0	n/a	n/a	0.0	0	0	0	FR2	2	R1030J
1957.198	1.219	2294404	DISTRACT_END	n/a	n/a	n/a	-999	19	[0, 0, 0]	n/a	0	1	0	n/a	n/a	0.0	0	0	0	FR2	2	R1030J
1958.417	4.182	2295623	REC_START	n/a	n/a	n/a	-999	19	[0, 0, 0]	n/a	0	1	0	n/a	n/a	0.0	0	0	0	FR2	2	R1030J
1962.599	0.272	2299805	REC_WORD_VV	4.182	n/a	<>	-999	19	[0, 0, 0]	n/a	0	1	0	n/a	n/a	0.0	0	0	0	FR2	2	R1030J
1962.871	2.207	2300077	REC_WORD	4.454	n/a	SLIME	-999	19	[0, 0, 0]	n/a	0	1	0	n/a	n/a	0.0	0	0	0	FR2	2	R1030J
1965.078	4.866	2302284	REC_WORD	6.661	n/a	ANT	-999	19	[0, 0, 0]	n/a	0	1	0	n/a	n/a	0.0	0	0	0	FR2	2	R1030J
1969.944	2.219	2307150	REC_WORD	11.527	n/a	MAZE	-999	19	[0, 0, 0]	n/a	0	1	0	n/a	n/a	0.0	0	0	0	FR2	2	R1030J
1972.163	13.027	2309369	REC_WORD	13.746	n/a	HAT	-999	19	[0, 0, 0]	n/a	0	1	0	n/a	n/a	0.0	0	0	0	FR2	2	R1030J
1985.19	1.982	2322395	REC_WORD	26.773	n/a	STONE	-999	19	[0, 0, 0]	n/a	0	1	0	n/a	n/a	0.0	0	0	0	FR2	2	R1030J
1987.172	1.26	2324377	REC_WORD	28.755	n/a	ROAD	-999	19	[0, 0, 0]	n/a	0	1	0	n/a	n/a	0.0	0	0	0	FR2	2	R1030J
1988.432	3.241	2325637	REC_END	n/a	n/a	n/a	-999	19	[0, 0, 0]	n/a	0	1	0	n/a	n/a	0.0	0	0	0	FR2	2	R1030J
1991.673	10.0	2328878	COUNTDOWN_START	n/a	n/a	n/a	-999	20	[0, 0, 0]	n/a	0	1	0	n/a	n/a	0.0	0	0	0	FR2	2	R1030J
1991.674	10.427	2328879	TRIAL	n/a	n/a	n/a	-999	20	[0, 0, 0]	n/a	0	1	0	n/a	n/a	0.0	0	0	0	FR2	2	R1030J
2002.101	0.023	2339306	COUNTDOWN_END	n/a	n/a	n/a	-999	20	[0, 0, 0]	n/a	0	1	0	n/a	n/a	0.0	0	0	0	FR2	2	R1030J
2002.124	1.6	2339329	ORIENT	n/a	n/a	n/a	-999	20	[0, 0, 0]	n/a	0	1	0	n/a	n/a	0.0	0	0	0	FR2	2	R1030J
2004.482	4.6	2341687	STIM_ON	n/a	n/a	n/a	-999	20	[0, 0, 0]	n/a	1	1	4600	LQ1	LQ2	500.0	50	230	300	FR2	2	R1030J
2004.695	1.6	2341900	WORD	n/a	wordpools/wordpool_EN.txt	CAVE	1	20	[0, 0, 0]	n/a	1	1	4600	LQ1	LQ2	500.0	50	230	300	FR2	2	R1030J
2007.149	1.6	2344354	WORD	n/a	wordpools/wordpool_EN.txt	BOOK	2	20	[0, 0, 0]	n/a	1	1	4600	LQ1	LQ2	500.0	50	230	300	FR2	2	R1030J
2009.77	1.6	2346975	WORD	n/a	wordpools/wordpool_EN.txt	BOARD	3	20	[0, 0, 0]	n/a	0	1	0	n/a	n/a	0.0	0	0	0	FR2	2	R1030J
2012.174	1.6	2349379	WORD	n/a	wordpools/wordpool_EN.txt	RAT	4	20	[0, 0, 0]	n/a	0	1	0	n/a	n/a	0.0	0	0	0	FR2	2	R1030J
2014.426	4.6	2351631	STIM_ON	n/a	n/a	n/a	-999	20	[0, 0, 0]	n/a	1	1	4600	LQ1	LQ2	500.0	50	230	300	FR2	2	R1030J
2014.645	1.6	2351850	WORD	n/a	wordpools/wordpool_EN.txt	SNOW	5	20	[0, 0, 0]	n/a	1	1	4600	LQ1	LQ2	500.0	50	230	300	FR2	2	R1030J
2017.233	1.6	2354438	WORD	n/a	wordpools/wordpool_EN.txt	MOUTH	6	20	[0, 0, 0]	n/a	1	1	4600	LQ1	LQ2	500.0	50	230	300	FR2	2	R1030J
2019.753	1.6	2356958	WORD	n/a	wordpools/wordpool_EN.txt	LAMB	7	20	[0, 0, 0]	n/a	0	1	0	n/a	n/a	0.0	0	0	0	FR2	2	R1030J
2022.358	1.6	2359563	WORD	n/a	wordpools/wordpool_EN.txt	BRIDGE	8	20	[0, 0, 0]	n/a	0	1	0	n/a	n/a	0.0	0	0	0	FR2	2	R1030J
2024.67	4.6	2361875	STIM_ON	n/a	n/a	n/a	-999	20	[0, 0, 0]	n/a	1	1	4600	LQ1	LQ2	500.0	50	230	300	FR2	2	R1030J
2024.879	1.6	2362084	WORD	n/a	wordpools/wordpool_EN.txt	DOG	9	20	[0, 0, 0]	n/a	1	1	4600	LQ1	LQ2	500.0	50	230	300	FR2	2	R1030J
2027.501	1.6	2364706	WORD	n/a	wordpools/wordpool_EN.txt	CART	10	20	[0, 0, 0]	n/a	1	1	4600	LQ1	LQ2	500.0	50	230	300	FR2	2	R1030J
2030.088	1.6	2367293	WORD	n/a	wordpools/wordpool_EN.txt	SHIP	11	20	[0, 0, 0]	n/a	0	1	0	n/a	n/a	0.0	0	0	0	FR2	2	R1030J
2032.492	1.6	2369697	WORD	n/a	wordpools/wordpool_EN.txt	WORLD	12	20	[0, 0, 0]	n/a	0	1	0	n/a	n/a	0.0	0	0	0	FR2	2	R1030J
2034.111	0.001	2371316	DISTRACT_START	n/a	n/a	n/a	-999	20	[0, 0, 0]	n/a	0	1	0	n/a	n/a	0.0	0	0	0	FR2	2	R1030J
2034.112	0.015	2371317	START	n/a	n/a	n/a	-999	20	[-999, -999, -999]	n/a	0	1	0	n/a	n/a	0.0	0	0	0	FR2	2	R1030J
2034.127	2.705	2371332	PROB	2.684	n/a	n/a	-999	20	[1, 9, 1]	11	0	1	0	n/a	n/a	0.0	0	0	0	FR2	2	R1030J
2036.832	2.771	2374037	PROB	2.747	n/a	n/a	-999	20	[9, 6, 9]	24	0	1	0	n/a	n/a	0.0	0	0	0	FR2	2	R1030J
2039.603	2.02	2376808	PROB	1.992	n/a	n/a	-999	20	[1, 5, 2]	8	0	1	0	n/a	n/a	0.0	0	0	0	FR2	2	R1030J
2041.623	4.207	2378828	PROB	4.18	n/a	n/a	-999	20	[9, 8, 7]	24	0	1	0	n/a	n/a	0.0	0	0	0	FR2	2	R1030J
2045.83	2.872	2383035	PROB	2.837	n/a	n/a	-999	20	[8, 8, 3]	19	0	1	0	n/a	n/a	0.0	0	0	0	FR2	2	R1030J
2048.702	2.688	2385907	PROB	2.653	n/a	n/a	-999	20	[2, 3, 8]	13	0	1	0	n/a	n/a	0.0	0	0	0	FR2	2	R1030J
2051.39	2.604	2388595	PROB	2.573	n/a	n/a	-999	20	[2, 4, 8]	14	0	1	0	n/a	n/a	0.0	0	0	0	FR2	2	R1030J
2053.994	2.474	2391199	PROB	2.474	n/a	n/a	-999	20	[2, 1, 7]	10	0	1	0	n/a	n/a	0.0	0	0	0	FR2	2	R1030J
2056.468	0.015	2393673	STOP	n/a	n/a	n/a	-999	20	[-999, -999, -999]	n/a	0	1	0	n/a	n/a	0.0	0	0	0	FR2	2	R1030J
2056.483	1.151	2393688	DISTRACT_END	n/a	n/a	n/a	-999	20	[0, 0, 0]	n/a	0	1	0	n/a	n/a	0.0	0	0	0	FR2	2	R1030J
2057.634	12.756	2394839	REC_START	n/a	n/a	n/a	-999	20	[0, 0, 0]	n/a	0	1	0	n/a	n/a	0.0	0	0	0	FR2	2	R1030J
2070.39	1.337	2407595	REC_WORD	12.756	n/a	FUR	-999	20	[0, 0, 0]	n/a	0	1	0	n/a	n/a	0.0	0	0	0	FR2	2	R1030J
2071.727	2.018	2408932	REC_WORD	14.093	n/a	RAT	-999	20	[0, 0, 0]	n/a	0	1	0	n/a	n/a	0.0	0	0	0	FR2	2	R1030J
2073.745	2.068	2410950	REC_WORD	16.111	n/a	DOG	-999	20	[0, 0, 0]	n/a	0	1	0	n/a	n/a	0.0	0	0	0	FR2	2	R1030J
2075.813	2.976	2413018	REC_WORD	18.179	n/a	PET	-999	20	[0, 0, 0]	n/a	0	1	0	n/a	n/a	0.0	0	0	0	FR2	2	R1030J
2078.789	5.544	2415994	REC_WORD	21.155	n/a	LAMB	-999	20	[0, 0, 0]	n/a	0	1	0	n/a	n/a	0.0	0	0	0	FR2	2	R1030J
2084.333	3.325	2421537	REC_WORD	26.699	n/a	FENCE	-999	20	[0, 0, 0]	n/a	0	1	0	n/a	n/a	0.0	0	0	0	FR2	2	R1030J
2087.658	2.931	2424862	REC_END	n/a	n/a	n/a	-999	20	[0, 0, 0]	n/a	0	1	0	n/a	n/a	0.0	0	0	0	FR2	2	R1030J
2090.589	10.0	2427793	COUNTDOWN_START	n/a	n/a	n/a	-999	21	[0, 0, 0]	n/a	0	1	0	n/a	n/a	0.0	0	0	0	FR2	2	R1030J
2090.59	10.427	2427794	TRIAL	n/a	n/a	n/a	-999	21	[0, 0, 0]	n/a	0	1	0	n/a	n/a	0.0	0	0	0	FR2	2	R1030J
2101.017	0.006	2438221	COUNTDOWN_END	n/a	n/a	n/a	-999	21	[0, 0, 0]	n/a	0	1	0	n/a	n/a	0.0	0	0	0	FR2	2	R1030J
2101.023	1.6	2438227	ORIENT	n/a	n/a	n/a	-999	21	[0, 0, 0]	n/a	0	1	0	n/a	n/a	0.0	0	0	0	FR2	2	R1030J
2103.33	4.6	2440534	STIM_ON	n/a	n/a	n/a	-999	21	[0, 0, 0]	n/a	1	1	4600	LQ1	LQ2	500.0	50	230	300	FR2	2	R1030J
2103.545	1.6	2440749	WORD	n/a	wordpools/wordpool_EN.txt	CAR	1	21	[0, 0, 0]	n/a	1	1	4600	LQ1	LQ2	500.0	50	230	300	FR2	2	R1030J
2106.165	1.6	2443369	WORD	n/a	wordpools/wordpool_EN.txt	PEACH	2	21	[0, 0, 0]	n/a	1	1	4600	LQ1	LQ2	500.0	50	230	300	FR2	2	R1030J
2108.636	1.6	2445840	WORD	n/a	wordpools/wordpool_EN.txt	SHRIMP	3	21	[0, 0, 0]	n/a	0	1	0	n/a	n/a	0.0	0	0	0	FR2	2	R1030J
2111.19	1.6	2448394	WORD	n/a	wordpools/wordpool_EN.txt	STRING	4	21	[0, 0, 0]	n/a	0	1	0	n/a	n/a	0.0	0	0	0	FR2	2	R1030J
2113.594	4.6	2450798	STIM_ON	n/a	n/a	n/a	-999	21	[0, 0, 0]	n/a	1	1	4600	LQ1	LQ2	500.0	50	230	300	FR2	2	R1030J
2113.811	1.6	2451015	WORD	n/a	wordpools/wordpool_EN.txt	HORN	5	21	[0, 0, 0]	n/a	1	1	4600	LQ1	LQ2	500.0	50	230	300	FR2	2	R1030J
2116.316	1.6	2453520	WORD	n/a	wordpools/wordpool_EN.txt	STREET	6	21	[0, 0, 0]	n/a	1	1	4600	LQ1	LQ2	500.0	50	230	300	FR2	2	R1030J
2118.87	1.6	2456074	WORD	n/a	wordpools/wordpool_EN.txt	WAND	7	21	[0, 0, 0]	n/a	0	1	0	n/a	n/a	0.0	0	0	0	FR2	2	R1030J
2121.242	1.6	2458446	WORD	n/a	wordpools/wordpool_EN.txt	SHIELD	8	21	[0, 0, 0]	n/a	0	1	0	n/a	n/a	0.0	0	0	0	FR2	2	R1030J
2123.437	4.6	2460641	STIM_ON	n/a	n/a	n/a	-999	21	[0, 0, 0]	n/a	1	1	4600	LQ1	LQ2	500.0	50	230	300	FR2	2	R1030J
2123.645	1.6	2460849	WORD	n/a	wordpools/wordpool_EN.txt	SPRING	9	21	[0, 0, 0]	n/a	1	1	4600	LQ1	LQ2	500.0	50	230	300	FR2	2	R1030J
2126.065	1.6	2463269	WORD	n/a	wordpools/wordpool_EN.txt	WING	10	21	[0, 0, 0]	n/a	1	1	4600	LQ1	LQ2	500.0	50	230	300	FR2	2	R1030J
2128.521	1.6	2465725	WORD	n/a	wordpools/wordpool_EN.txt	SWORD	11	21	[0, 0, 0]	n/a	0	1	0	n/a	n/a	0.0	0	0	0	FR2	2	R1030J
2131.007	1.6	2468211	WORD	n/a	wordpools/wordpool_EN.txt	FOX	12	21	[0, 0, 0]	n/a	0	1	0	n/a	n/a	0.0	0	0	0	FR2	2	R1030J
2132.626	0.001	2469830	DISTRACT_START	n/a	n/a	n/a	-999	21	[0, 0, 0]	n/a	0	1	0	n/a	n/a	0.0	0	0	0	FR2	2	R1030J
2132.627	0.016	2469831	START	n/a	n/a	n/a	-999	21	[-999, -999, -999]	n/a	0	1	0	n/a	n/a	0.0	0	0	0	FR2	2	R1030J
2132.643	3.272	2469847	PROB	3.24	n/a	n/a	-999	21	[9, 1, 4]	14	0	1	0	n/a	n/a	0.0	0	0	0	FR2	2	R1030J
2135.915	2.822	2473119	PROB	2.8	n/a	n/a	-999	21	[6, 6, 4]	16	0	1	0	n/a	n/a	0.0	0	0	0	FR2	2	R1030J
2138.737	3.622	2475941	PROB	3.586	n/a	n/a	-999	21	[7, 5, 8]	20	0	1	0	n/a	n/a	0.0	0	0	0	FR2	2	R1030J
2142.359	3.356	2479563	PROB	3.332	n/a	n/a	-999	21	[8, 5, 2]	15	0	1	0	n/a	n/a	0.0	0	0	0	FR2	2	R1030J
2145.715	3.506	2482919	PROB	3.48	n/a	n/a	-999	21	[5, 9, 6]	20	0	1	0	n/a	n/a	0.0	0	0	0	FR2	2	R1030J
2149.221	3.582	2486425	PROB	3.582	n/a	n/a	-999	21	[4, 2, 9]	15	0	1	0	n/a	n/a	0.0	0	0	0	FR2	2	R1030J
2152.803	0.007	2490007	STOP	n/a	n/a	n/a	-999	21	[-999, -999, -999]	n/a	0	1	0	n/a	n/a	0.0	0	0	0	FR2	2	R1030J
2152.81	1.22	2490014	DISTRACT_END	n/a	n/a	n/a	-999	21	[0, 0, 0]	n/a	0	1	0	n/a	n/a	0.0	0	0	0	FR2	2	R1030J
2154.03	4.491	2491234	REC_START	n/a	n/a	n/a	-999	21	[0, 0, 0]	n/a	0	1	0	n/a	n/a	0.0	0	0	0	FR2	2	R1030J
2158.521	1.598	2495725	REC_WORD	4.491	n/a	SIGN	-999	21	[0, 0, 0]	n/a	0	1	0	n/a	n/a	0.0	0	0	0	FR2	2	R1030J
2160.119	13.517	2497323	REC_WORD	6.089	n/a	SNOW	-999	21	[0, 0, 0]	n/a	0	1	0	n/a	n/a	0.0	0	0	0	FR2	2	R1030J
2173.636	3.005	2510840	REC_WORD	19.606	n/a	BRANCH	-999	21	[0, 0, 0]	n/a	0	1	0	n/a	n/a	0.0	0	0	0	FR2	2	R1030J
2176.641	4.197	2513845	REC_WORD	22.611	n/a	FOX	-999	21	[0, 0, 0]	n/a	0	1	0	n/a	n/a	0.0	0	0	0	FR2	2	R1030J
2180.838	3.207	2518041	REC_WORD	26.808	n/a	BEAR	-999	21	[0, 0, 0]	n/a	0	1	0	n/a	n/a	0.0	0	0	0	FR2	2	R1030J
2184.045	2.473	2521248	REC_END	n/a	n/a	n/a	-999	21	[0, 0, 0]	n/a	0	1	0	n/a	n/a	0.0	0	0	0	FR2	2	R1030J
2186.518	10.0	2523721	COUNTDOWN_START	n/a	n/a	n/a	-999	22	[0, 0, 0]	n/a	0	1	0	n/a	n/a	0.0	0	0	0	FR2	2	R1030J
2186.519	10.427	2523722	TRIAL	n/a	n/a	n/a	-999	22	[0, 0, 0]	n/a	0	1	0	n/a	n/a	0.0	0	0	0	FR2	2	R1030J
2196.946	0.005	2534149	COUNTDOWN_END	n/a	n/a	n/a	-999	22	[0, 0, 0]	n/a	0	1	0	n/a	n/a	0.0	0	0	0	FR2	2	R1030J
2196.951	1.6	2534154	ORIENT	n/a	n/a	n/a	-999	22	[0, 0, 0]	n/a	0	1	0	n/a	n/a	0.0	0	0	0	FR2	2	R1030J
2199.15	4.6	2536353	STIM_ON	n/a	n/a	n/a	-999	22	[0, 0, 0]	n/a	1	1	4600	LQ1	LQ2	500.0	50	230	300	FR2	2	R1030J
2199.356	1.6	2536559	WORD	n/a	wordpools/wordpool_EN.txt	ROCK	1	22	[0, 0, 0]	n/a	1	1	4600	LQ1	LQ2	500.0	50	230	300	FR2	2	R1030J
2201.926	1.6	2539129	WORD	n/a	wordpools/wordpool_EN.txt	STAIR	2	22	[0, 0, 0]	n/a	1	1	4600	LQ1	LQ2	500.0	50	230	300	FR2	2	R1030J
2204.314	1.6	2541517	WORD	n/a	wordpools/wordpool_EN.txt	CUP	3	22	[0, 0, 0]	n/a	0	1	0	n/a	n/a	0.0	0	0	0	FR2	2	R1030J
2206.751	1.6	2543954	WORD	n/a	wordpools/wordpool_EN.txt	TOY	4	22	[0, 0, 0]	n/a	0	1	0	n/a	n/a	0.0	0	0	0	FR2	2	R1030J
2209.05	4.6	2546253	STIM_ON	n/a	n/a	n/a	-999	22	[0, 0, 0]	n/a	1	1	4600	LQ1	LQ2	500.0	50	230	300	FR2	2	R1030J
2209.255	1.6	2546458	WORD	n/a	wordpools/wordpool_EN.txt	PIPE	5	22	[0, 0, 0]	n/a	1	1	4600	LQ1	LQ2	500.0	50	230	300	FR2	2	R1030J
2211.81	1.6	2549013	WORD	n/a	wordpools/wordpool_EN.txt	INK	6	22	[0, 0, 0]	n/a	1	1	4600	LQ1	LQ2	500.0	50	230	300	FR2	2	R1030J
2214.414	1.6	2551617	WORD	n/a	wordpools/wordpool_EN.txt	NOSE	7	22	[0, 0, 0]	n/a	0	1	0	n/a	n/a	0.0	0	0	0	FR2	2	R1030J
2216.801	1.6	2554004	WORD	n/a	wordpools/wordpool_EN.txt	ICE	8	22	[0, 0, 0]	n/a	0	1	0	n/a	n/a	0.0	0	0	0	FR2	2	R1030J
2219.118	4.6	2556321	STIM_ON	n/a	n/a	n/a	-999	22	[0, 0, 0]	n/a	1	1	4600	LQ1	LQ2	500.0	50	230	300	FR2	2	R1030J
2219.322	1.6	2556525	WORD	n/a	wordpools/wordpool_EN.txt	WOLF	9	22	[0, 0, 0]	n/a	1	1	4600	LQ1	LQ2	500.0	50	230	300	FR2	2	R1030J
2221.726	1.6	2558929	WORD	n/a	wordpools/wordpool_EN.txt	BOWL	10	22	[0, 0, 0]	n/a	1	1	4600	LQ1	LQ2	500.0	50	230	300	FR2	2	R1030J
2224.297	1.6	2561500	WORD	n/a	wordpools/wordpool_EN.txt	BADGE	11	22	[0, 0, 0]	n/a	0	1	0	n/a	n/a	0.0	0	0	0	FR2	2	R1030J
2226.718	1.6	2563921	WORD	n/a	wordpools/wordpool_EN.txt	RUG	12	22	[0, 0, 0]	n/a	0	1	0	n/a	n/a	0.0	0	0	0	FR2	2	R1030J
2228.338	0.0	2565541	DISTRACT_START	n/a	n/a	n/a	-999	22	[0, 0, 0]	n/a	0	1	0	n/a	n/a	0.0	0	0	0	FR2	2	R1030J
2228.338	0.016	2565541	START	n/a	n/a	n/a	-999	22	[-999, -999, -999]	n/a	0	1	0	n/a	n/a	0.0	0	0	0	FR2	2	R1030J
2228.354	4.074	2565557	PROB	4.049	n/a	n/a	-999	22	[9, 5, 7]	21	0	1	0	n/a	n/a	0.0	0	0	0	FR2	2	R1030J
2232.428	2.688	2569631	PROB	2.663	n/a	n/a	-999	22	[7, 5, 2]	14	0	1	0	n/a	n/a	0.0	0	0	0	FR2	2	R1030J
2235.116	2.07	2572319	PROB	2.047	n/a	n/a	-999	22	[2, 5, 5]	12	0	1	0	n/a	n/a	0.0	0	0	0	FR2	2	R1030J
2237.186	2.754	2574389	PROB	2.721	n/a	n/a	-999	22	[2, 8, 4]	14	0	1	0	n/a	n/a	0.0	0	0	0	FR2	2	R1030J
2239.94	2.622	2577143	PROB	2.592	n/a	n/a	-999	22	[3, 9, 8]	20	0	1	0	n/a	n/a	0.0	0	0	0	FR2	2	R1030J
2242.562	2.537	2579765	PROB	2.505	n/a	n/a	-999	22	[7, 2, 8]	17	0	1	0	n/a	n/a	0.0	0	0	0	FR2	2	R1030J
2245.099	2.671	2582302	PROB	2.64	n/a	n/a	-999	22	[2, 6, 1]	9	0	1	0	n/a	n/a	0.0	0	0	0	FR2	2	R1030J
2247.77	2.257	2584973	PROB	2.257	n/a	n/a	-999	22	[6, 5, 5]	16	0	1	0	n/a	n/a	0.0	0	0	0	FR2	2	R1030J
2250.027	0.014	2587230	STOP	n/a	n/a	n/a	-999	22	[-999, -999, -999]	n/a	0	1	0	n/a	n/a	0.0	0	0	0	FR2	2	R1030J
2250.041	1.052	2587244	DISTRACT_END	n/a	n/a	n/a	-999	22	[0, 0, 0]	n/a	0	1	0	n/a	n/a	0.0	0	0	0	FR2	2	R1030J
2251.093	7.229	2588296	REC_START	n/a	n/a	n/a	-999	22	[0, 0, 0]	n/a	0	1	0	n/a	n/a	0.0	0	0	0	FR2	2	R1030J
2258.322	1.459	2595525	REC_WORD	7.229	n/a	TOY	-999	22	[0, 0, 0]	n/a	0	1	0	n/a	n/a	0.0	0	0	0	FR2	2	R1030J
2259.781	1.705	2596984	REC_WORD	8.688	n/a	PIPE	-999	22	[0, 0, 0]	n/a	0	1	0	n/a	n/a	0.0	0	0	0	FR2	2	R1030J
2261.486	2.101	2598689	REC_WORD	10.393	n/a	BOWL	-999	22	[0, 0, 0]	n/a	0	1	0	n/a	n/a	0.0	0	0	0	FR2	2	R1030J
2263.587	2.388	2600790	REC_WORD	12.494	n/a	BREAD	-999	22	[0, 0, 0]	n/a	0	1	0	n/a	n/a	0.0	0	0	0	FR2	2	R1030J
2265.975	2.033	2603178	REC_WORD	14.882	n/a	MAT	-999	22	[0, 0, 0]	n/a	0	1	0	n/a	n/a	0.0	0	0	0	FR2	2	R1030J
2268.008	3.147	2605211	REC_WORD	16.915	n/a	FLOOR	-999	22	[0, 0, 0]	n/a	0	1	0	n/a	n/a	0.0	0	0	0	FR2	2	R1030J
2271.155	4.331	2608358	REC_WORD	20.062	n/a	SIGN	-999	22	[0, 0, 0]	n/a	0	1	0	n/a	n/a	0.0	0	0	0	FR2	2	R1030J
2275.486	5.022	2612689	REC_WORD	24.393	n/a	POLE	-999	22	[0, 0, 0]	n/a	0	1	0	n/a	n/a	0.0	0	0	0	FR2	2	R1030J
2280.508	0.6	2617710	REC_WORD	29.415	n/a	RUG	-999	22	[0, 0, 0]	n/a	0	1	0	n/a	n/a	0.0	0	0	0	FR2	2	R1030J
2281.108	2.623	2618310	REC_END	n/a	n/a	n/a	-999	22	[0, 0, 0]	n/a	0	1	0	n/a	n/a	0.0	0	0	0	FR2	2	R1030J
2283.731	0.0	2620933	TRIAL	n/a	n/a	n/a	-999	23	[0, 0, 0]	n/a	0	1	0	n/a	n/a	0.0	0	0	0	FR2	2	R1030J
2283.731	10.0	2620933	COUNTDOWN_START	n/a	n/a	n/a	-999	23	[0, 0, 0]	n/a	0	1	0	n/a	n/a	0.0	0	0	0	FR2	2	R1030J
2294.159	0.006	2631361	COUNTDOWN_END	n/a	n/a	n/a	-999	23	[0, 0, 0]	n/a	0	1	0	n/a	n/a	0.0	0	0	0	FR2	2	R1030J
2294.165	1.6	2631367	ORIENT	n/a	n/a	n/a	-999	23	[0, 0, 0]	n/a	0	1	0	n/a	n/a	0.0	0	0	0	FR2	2	R1030J
2296.455	4.6	2633657	STIM_ON	n/a	n/a	n/a	-999	23	[0, 0, 0]	n/a	1	1	4600	LQ1	LQ2	500.0	50	230	300	FR2	2	R1030J
2296.669	1.6	2633871	WORD	n/a	wordpools/wordpool_EN.txt	MAT	1	23	[0, 0, 0]	n/a	1	1	4600	LQ1	LQ2	500.0	50	230	300	FR2	2	R1030J
2299.273	1.6	2636475	WORD	n/a	wordpools/wordpool_EN.txt	HOSE	2	23	[0, 0, 0]	n/a	1	1	4600	LQ1	LQ2	500.0	50	230	300	FR2	2	R1030J
2301.678	1.6	2638880	WORD	n/a	wordpools/wordpool_EN.txt	LEAF	3	23	[0, 0, 0]	n/a	0	1	0	n/a	n/a	0.0	0	0	0	FR2	2	R1030J
2304.265	1.6	2641467	WORD	n/a	wordpools/wordpool_EN.txt	SHARK	4	23	[0, 0, 0]	n/a	0	1	0	n/a	n/a	0.0	0	0	0	FR2	2	R1030J
2306.655	4.6	2643857	STIM_ON	n/a	n/a	n/a	-999	23	[0, 0, 0]	n/a	1	1	4600	LQ1	LQ2	500.0	50	230	300	FR2	2	R1030J
2306.87	1.6	2644072	WORD	n/a	wordpools/wordpool_EN.txt	MILK	5	23	[0, 0, 0]	n/a	1	1	4600	LQ1	LQ2	500.0	50	230	300	FR2	2	R1030J
2309.357	1.6	2646559	WORD	n/a	wordpools/wordpool_EN.txt	BALL	6	23	[0, 0, 0]	n/a	1	1	4600	LQ1	LQ2	500.0	50	230	300	FR2	2	R1030J
2311.878	1.6	2649080	WORD	n/a	wordpools/wordpool_EN.txt	ARM	7	23	[0, 0, 0]	n/a	0	1	0	n/a	n/a	0.0	0	0	0	FR2	2	R1030J
2314.349	1.6	2651551	WORD	n/a	wordpools/wordpool_EN.txt	STORE	8	23	[0, 0, 0]	n/a	0	1	0	n/a	n/a	0.0	0	0	0	FR2	2	R1030J
2316.601	4.6	2653803	STIM_ON	n/a	n/a	n/a	-999	23	[0, 0, 0]	n/a	1	1	4600	LQ1	LQ2	500.0	50	230	300	FR2	2	R1030J
2316.82	1.6	2654022	WORD	n/a	wordpools/wordpool_EN.txt	GOLD	9	23	[0, 0, 0]	n/a	1	1	4600	LQ1	LQ2	500.0	50	230	300	FR2	2	R1030J
2319.307	1.6	2656509	WORD	n/a	wordpools/wordpool_EN.txt	CAPE	10	23	[0, 0, 0]	n/a	1	1	4600	LQ1	LQ2	500.0	50	230	300	FR2	2	R1030J
2321.845	1.6	2659047	WORD	n/a	wordpools/wordpool_EN.txt	STORM	11	23	[0, 0, 0]	n/a	0	1	0	n/a	n/a	0.0	0	0	0	FR2	2	R1030J
2324.299	1.6	2661501	WORD	n/a	wordpools/wordpool_EN.txt	WALL	12	23	[0, 0, 0]	n/a	0	1	0	n/a	n/a	0.0	0	0	0	FR2	2	R1030J
2325.918	0.001	2663120	DISTRACT_START	n/a	n/a	n/a	-999	23	[0, 0, 0]	n/a	0	1	0	n/a	n/a	0.0	0	0	0	FR2	2	R1030J
2325.919	0.016	2663121	START	n/a	n/a	n/a	-999	23	[-999, -999, -999]	n/a	0	1	0	n/a	n/a	0.0	0	0	0	FR2	2	R1030J
2325.935	5.058	2663137	PROB	5.02	n/a	n/a	-999	23	[9, 8, 6]	23	0	1	0	n/a	n/a	0.0	0	0	0	FR2	2	R1030J
2330.993	5.794	2668195	PROB	5.77	n/a	n/a	-999	23	[8, 7, 6]	21	0	1	0	n/a	n/a	0.0	0	0	0	FR2	2	R1030J
2336.787	4.457	2673989	PROB	4.432	n/a	n/a	-999	23	[3, 2, 9]	14	0	1	0	n/a	n/a	0.0	0	0	0	FR2	2	R1030J
2341.244	2.721	2678446	PROB	2.687	n/a	n/a	-999	23	[6, 6, 5]	17	0	1	0	n/a	n/a	0.0	0	0	0	FR2	2	R1030J
2343.965	2.479	2681167	PROB	2.479	n/a	n/a	-999	23	[7, 7, 2]	16	0	1	0	n/a	n/a	0.0	0	0	0	FR2	2	R1030J
2346.444	0.01	2683646	STOP	n/a	n/a	n/a	-999	23	[-999, -999, -999]	n/a	0	1	0	n/a	n/a	0.0	0	0	0	FR2	2	R1030J
2346.454	1.102	2683656	DISTRACT_END	n/a	n/a	n/a	-999	23	[0, 0, 0]	n/a	0	1	0	n/a	n/a	0.0	0	0	0	FR2	2	R1030J
2347.556	1.785	2684758	REC_START	n/a	n/a	n/a	-999	23	[0, 0, 0]	n/a	0	1	0	n/a	n/a	0.0	0	0	0	FR2	2	R1030J
2349.341	2.016	2686543	REC_WORD	1.785	n/a	HOSE	-999	23	[0, 0, 0]	n/a	0	1	0	n/a	n/a	0.0	0	0	0	FR2	2	R1030J
2351.357	18.725	2688559	REC_WORD	3.801	n/a	MAT	-999	23	[0, 0, 0]	n/a	0	1	0	n/a	n/a	0.0	0	0	0	FR2	2	R1030J
2370.082	7.488	2707284	REC_WORD	22.526	n/a	STORM	-999	23	[0, 0, 0]	n/a	0	1	0	n/a	n/a	0.0	0	0	0	FR2	2	R1030J
2377.57	2.105	2714771	REC_END	n/a	n/a	n/a	-999	23	[0, 0, 0]	n/a	0	1	0	n/a	n/a	0.0	0	0	0	FR2	2	R1030J
2379.675	10.0	2716876	COUNTDOWN_START	n/a	n/a	n/a	-999	24	[0, 0, 0]	n/a	0	0	0	n/a	n/a	0.0	0	0	0	FR2	2	R1030J
2379.676	10.427	2716877	TRIAL	n/a	n/a	n/a	-999	24	[0, 0, 0]	n/a	0	0	0	n/a	n/a	0.0	0	0	0	FR2	2	R1030J
2390.103	0.023	2727304	COUNTDOWN_END	n/a	n/a	n/a	-999	24	[0, 0, 0]	n/a	0	0	0	n/a	n/a	0.0	0	0	0	FR2	2	R1030J
2390.126	1.6	2727327	ORIENT	n/a	n/a	n/a	-999	24	[0, 0, 0]	n/a	0	0	0	n/a	n/a	0.0	0	0	0	FR2	2	R1030J
2392.714	1.6	2729915	WORD	n/a	wordpools/wordpool_EN.txt	SINK	1	24	[0, 0, 0]	n/a	0	0	0	n/a	n/a	0.0	0	0	0	FR2	2	R1030J
2395.152	1.6	2732353	WORD	n/a	wordpools/wordpool_EN.txt	PEN	2	24	[0, 0, 0]	n/a	0	0	0	n/a	n/a	0.0	0	0	0	FR2	2	R1030J
2397.639	1.6	2734840	WORD	n/a	wordpools/wordpool_EN.txt	AXE	3	24	[0, 0, 0]	n/a	0	0	0	n/a	n/a	0.0	0	0	0	FR2	2	R1030J
2400.11	1.6	2737311	WORD	n/a	wordpools/wordpool_EN.txt	EEL	4	24	[0, 0, 0]	n/a	0	0	0	n/a	n/a	0.0	0	0	0	FR2	2	R1030J
2402.565	1.6	2739766	WORD	n/a	wordpools/wordpool_EN.txt	JAIL	5	24	[0, 0, 0]	n/a	0	0	0	n/a	n/a	0.0	0	0	0	FR2	2	R1030J
2405.169	1.6	2742370	WORD	n/a	wordpools/wordpool_EN.txt	CHAIR	6	24	[0, 0, 0]	n/a	0	0	0	n/a	n/a	0.0	0	0	0	FR2	2	R1030J
2407.689	1.6	2744890	WORD	n/a	wordpools/wordpool_EN.txt	HEART	7	24	[0, 0, 0]	n/a	0	0	0	n/a	n/a	0.0	0	0	0	FR2	2	R1030J
2410.26	1.6	2747461	WORD	n/a	wordpools/wordpool_EN.txt	BOOT	8	24	[0, 0, 0]	n/a	0	0	0	n/a	n/a	0.0	0	0	0	FR2	2	R1030J
2412.865	1.6	2750066	WORD	n/a	wordpools/wordpool_EN.txt	FORK	9	24	[0, 0, 0]	n/a	0	0	0	n/a	n/a	0.0	0	0	0	FR2	2	R1030J
2415.269	1.6	2752470	WORD	n/a	wordpools/wordpool_EN.txt	CHIEF	10	24	[0, 0, 0]	n/a	0	0	0	n/a	n/a	0.0	0	0	0	FR2	2	R1030J
2417.706	1.6	2754907	WORD	n/a	wordpools/wordpool_EN.txt	GUARD	11	24	[0, 0, 0]	n/a	0	0	0	n/a	n/a	0.0	0	0	0	FR2	2	R1030J
2420.228	1.6	2757429	WORD	n/a	wordpools/wordpool_EN.txt	VASE	12	24	[0, 0, 0]	n/a	0	0	0	n/a	n/a	0.0	0	0	0	FR2	2	R1030J
2421.846	0.001	2759047	DISTRACT_START	n/a	n/a	n/a	-999	24	[0, 0, 0]	n/a	0	0	0	n/a	n/a	0.0	0	0	0	FR2	2	R1030J
2421.847	0.016	2759048	START	n/a	n/a	n/a	-999	24	[-999, -999, -999]	n/a	0	0	0	n/a	n/a	0.0	0	0	0	FR2	2	R1030J
2421.863	3.339	2759064	PROB	3.316	n/a	n/a	-999	24	[3, 8, 9]	20	0	0	0	n/a	n/a	0.0	0	0	0	FR2	2	R1030J
2425.202	3.539	2762403	PROB	3.497	n/a	n/a	-999	24	[2, 8, 5]	15	0	0	0	n/a	n/a	0.0	0	0	0	FR2	2	R1030J
2428.741	2.488	2765942	PROB	2.454	n/a	n/a	-999	24	[2, 8, 3]	13	0	0	0	n/a	n/a	0.0	0	0	0	FR2	2	R1030J
2431.229	2.588	2768430	PROB	2.558	n/a	n/a	-999	24	[1, 5, 9]	15	0	0	0	n/a	n/a	0.0	0	0	0	FR2	2	R1030J
2433.817	3.305	2771018	PROB	3.282	n/a	n/a	-999	24	[4, 3, 3]	10	0	0	0	n/a	n/a	0.0	0	0	0	FR2	2	R1030J
