onset	duration	sample	trial_type	response_time	stim_file	item_name	serialpos	recalled	list	test	answer	stimulation	stim_list	stim_duration	anode_label	cathode_label	amplitude	pulse_freq	n_pulses	pulse_width	experiment	session	subject
0.0	17.209	94524	SESS_START	n/a	n/a	n/a	-999	0	-999	[0, 0, 0]	n/a	0	0	0	n/a	n/a	0.0	0	0	0	FR2	0	R1006P
17.209	10.0	103334	COUNTDOWN_START	n/a	n/a	n/a	-999	0	-999	[0, 0, 0]	n/a	0	0	0	n/a	n/a	0.0	0	0	0	FR2	0	R1006P
27.637	3.708	108673	COUNTDOWN_END	n/a	n/a	n/a	-999	0	-999	[0, 0, 0]	n/a	0	0	0	n/a	n/a	0.0	0	0	0	FR2	0	R1006P
31.345	1.6	110571	PRACTICE_WORD	n/a	n/a	IRON	1	0	-1	[0, 0, 0]	n/a	0	0	0	n/a	n/a	0.0	0	0	0	FR2	0	R1006P
33.912	1.6	111886	PRACTICE_WORD	n/a	n/a	TONGUE	2	0	-1	[0, 0, 0]	n/a	0	0	0	n/a	n/a	0.0	0	0	0	FR2	0	R1006P
36.429	1.6	113174	PRACTICE_WORD	n/a	n/a	CAMEL	3	0	-1	[0, 0, 0]	n/a	0	0	0	n/a	n/a	0.0	0	0	0	FR2	0	R1006P
38.946	1.6	114463	PRACTICE_WORD	n/a	n/a	WAGON	4	0	-1	[0, 0, 0]	n/a	0	0	0	n/a	n/a	0.0	0	0	0	FR2	0	R1006P
41.397	1.6	115718	PRACTICE_WORD	n/a	n/a	BEAM	5	0	-1	[0, 0, 0]	n/a	0	0	0	n/a	n/a	0.0	0	0	0	FR2	0	R1006P
43.88	1.6	116989	PRACTICE_WORD	n/a	n/a	RING	6	0	-1	[0, 0, 0]	n/a	0	0	0	n/a	n/a	0.0	0	0	0	FR2	0	R1006P
46.496	1.6	118328	PRACTICE_WORD	n/a	n/a	WATCH	7	0	-1	[0, 0, 0]	n/a	0	0	0	n/a	n/a	0.0	0	0	0	FR2	0	R1006P
48.965	1.6	119592	PRACTICE_WORD	n/a	n/a	CHEST	8	0	-1	[0, 0, 0]	n/a	0	0	0	n/a	n/a	0.0	0	0	0	FR2	0	R1006P
51.497	1.6	120889	PRACTICE_WORD	n/a	n/a	ATTIC	9	0	-1	[0, 0, 0]	n/a	0	0	0	n/a	n/a	0.0	0	0	0	FR2	0	R1006P
53.899	1.6	122118	PRACTICE_WORD	n/a	n/a	RHINO	10	0	-1	[0, 0, 0]	n/a	0	0	0	n/a	n/a	0.0	0	0	0	FR2	0	R1006P
56.466	1.6	123433	PRACTICE_WORD	n/a	n/a	COTTON	11	0	-1	[0, 0, 0]	n/a	0	0	0	n/a	n/a	0.0	0	0	0	FR2	0	R1006P
59.033	1.6	124747	PRACTICE_WORD	n/a	n/a	FLOOD	12	0	-1	[0, 0, 0]	n/a	0	0	0	n/a	n/a	0.0	0	0	0	FR2	0	R1006P
60.65	0.0	125575	PRACTICE_DISTRACT_START	n/a	n/a	n/a	-999	0	-1	[0, 0, 0]	n/a	0	0	0	n/a	n/a	0.0	0	0	0	FR2	0	R1006P
60.65	0.017	125575	START	n/a	n/a	n/a	-999	0	-1	[-999, -999, -999]	n/a	0	0	0	n/a	n/a	0.0	0	0	0	FR2	0	R1006P
60.667	4.866	125583	PROB	4.835	n/a	n/a	-999	0	-1	[5, 3, 4]	12	0	0	0	n/a	n/a	0.0	0	0	0	FR2	0	R1006P
65.533	4.602	128075	PROB	4.578	n/a	n/a	-999	0	-1	[6, 5, 4]	15	0	0	0	n/a	n/a	0.0	0	0	0	FR2	0	R1006P
70.135	5.601	130431	PROB	5.576	n/a	n/a	-999	0	-1	[7, 9, 1]	17	0	0	0	n/a	n/a	0.0	0	0	0	FR2	0	R1006P
75.736	2.401	133298	PROB	2.367	n/a	n/a	-999	0	-1	[1, 9, 1]	11	0	0	0	n/a	n/a	0.0	0	0	0	FR2	0	R1006P
78.137	3.838	134528	PROB	3.838	n/a	n/a	-999	0	-1	[2, 8, 4]	14	0	0	0	n/a	n/a	0.0	0	0	0	FR2	0	R1006P
81.975	0.012	136493	STOP	n/a	n/a	n/a	-999	0	-1	[-999, -999, -999]	n/a	0	0	0	n/a	n/a	0.0	0	0	0	FR2	0	R1006P
81.987	0.636	136499	PRACTICE_DISTRACT_END	n/a	n/a	n/a	-999	0	-1	[0, 0, 0]	n/a	0	0	0	n/a	n/a	0.0	0	0	0	FR2	0	R1006P
82.623	30.515	136824	PRACTICE_REC_START	n/a	n/a	n/a	-999	0	-1	[0, 0, 0]	n/a	0	0	0	n/a	n/a	0.0	0	0	0	FR2	0	R1006P
113.138	43.847	152447	PRACTICE_REC_END	n/a	n/a	n/a	-999	0	-1	[0, 0, 0]	n/a	0	0	0	n/a	n/a	0.0	0	0	0	FR2	0	R1006P
156.985	0.0	174896	TRIAL	n/a	n/a	n/a	-999	0	1	[0, 0, 0]	n/a	0	1	0	n/a	n/a	0.0	0	0	0	FR2	0	R1006P
156.985	10.0	174896	COUNTDOWN_START	n/a	n/a	n/a	-999	0	1	[0, 0, 0]	n/a	0	1	0	n/a	n/a	0.0	0	0	0	FR2	0	R1006P
167.413	0.007	180234	COUNTDOWN_END	n/a	n/a	n/a	-999	0	1	[0, 0, 0]	n/a	0	1	0	n/a	n/a	0.0	0	0	0	FR2	0	R1006P
167.42	1.6	180238	ORIENT	n/a	n/a	n/a	-999	0	1	[0, 0, 0]	n/a	0	1	0	n/a	n/a	0.0	0	0	0	FR2	0	R1006P
170.038	1.6	181578	WORD	n/a	wordpools/wordpool_EN.txt	CLOUD	1	1	1	[0, 0, 0]	n/a	0	1	0	n/a	n/a	0.0	0	0	0	FR2	0	R1006P
172.655	1.6	182918	WORD	n/a	wordpools/wordpool_EN.txt	JUDGE	2	1	1	[0, 0, 0]	n/a	0	1	0	n/a	n/a	0.0	0	0	0	FR2	0	R1006P
175.049	4.6	184144	STIM_ON	n/a	n/a	n/a	-999	0	1	[0, 0, 0]	n/a	1	1	4600	DEC3	DEC4	1000.0	50	230	300	FR2	0	R1006P
175.255	1.6	184249	WORD	n/a	wordpools/wordpool_EN.txt	WHALE	3	0	1	[0, 0, 0]	n/a	1	1	4600	DEC3	DEC4	1000.0	50	230	300	FR2	0	R1006P
177.772	1.6	185538	WORD	n/a	wordpools/wordpool_EN.txt	HORSE	4	0	1	[0, 0, 0]	n/a	1	1	4600	DEC3	DEC4	1000.0	50	230	300	FR2	0	R1006P
180.323	1.6	186844	WORD	n/a	wordpools/wordpool_EN.txt	BEACH	5	0	1	[0, 0, 0]	n/a	0	1	0	n/a	n/a	0.0	0	0	0	FR2	0	R1006P
182.923	1.6	188175	WORD	n/a	wordpools/wordpool_EN.txt	STAR	6	0	1	[0, 0, 0]	n/a	0	1	0	n/a	n/a	0.0	0	0	0	FR2	0	R1006P
185.217	4.6	189350	STIM_ON	n/a	n/a	n/a	-999	0	1	[0, 0, 0]	n/a	1	1	4600	DEC3	DEC4	1000.0	50	230	300	FR2	0	R1006P
185.424	1.6	189456	WORD	n/a	wordpools/wordpool_EN.txt	WAVE	7	0	1	[0, 0, 0]	n/a	1	1	4600	DEC3	DEC4	1000.0	50	230	300	FR2	0	R1006P
187.991	1.6	190770	WORD	n/a	wordpools/wordpool_EN.txt	SMOKE	8	0	1	[0, 0, 0]	n/a	1	1	4600	DEC3	DEC4	1000.0	50	230	300	FR2	0	R1006P
190.608	1.6	192110	WORD	n/a	wordpools/wordpool_EN.txt	HEN	9	0	1	[0, 0, 0]	n/a	0	1	0	n/a	n/a	0.0	0	0	0	FR2	0	R1006P
193.058	1.6	193364	WORD	n/a	wordpools/wordpool_EN.txt	HEART	10	1	1	[0, 0, 0]	n/a	0	1	0	n/a	n/a	0.0	0	0	0	FR2	0	R1006P
195.416	4.6	194571	STIM_ON	n/a	n/a	n/a	-999	0	1	[0, 0, 0]	n/a	1	1	4600	DEC3	DEC4	1000.0	50	230	300	FR2	0	R1006P
195.626	1.6	194679	WORD	n/a	wordpools/wordpool_EN.txt	GLOVE	11	0	1	[0, 0, 0]	n/a	1	1	4600	DEC3	DEC4	1000.0	50	230	300	FR2	0	R1006P
198.209	1.6	196001	WORD	n/a	wordpools/wordpool_EN.txt	VEST	12	0	1	[0, 0, 0]	n/a	1	1	4600	DEC3	DEC4	1000.0	50	230	300	FR2	0	R1006P
199.826	0.001	196829	DISTRACT_START	n/a	n/a	n/a	-999	0	1	[0, 0, 0]	n/a	1	1	4600	DEC3	DEC4	1000.0	50	230	300	FR2	0	R1006P
199.827	0.016	196830	START	n/a	n/a	n/a	-999	0	1	[-999, -999, -999]	n/a	0	1	0	n/a	n/a	0.0	0	0	0	FR2	0	R1006P
199.843	5.935	196838	PROB	5.908	n/a	n/a	-999	0	1	[6, 2, 3]	11	0	1	0	n/a	n/a	0.0	0	0	0	FR2	0	R1006P
205.778	6.318	199876	PROB	6.285	n/a	n/a	-999	0	1	[2, 4, 7]	13	0	1	0	n/a	n/a	0.0	0	0	0	FR2	0	R1006P
212.096	2.983	203111	PROB	2.951	n/a	n/a	-999	0	1	[4, 3, 2]	9	0	1	0	n/a	n/a	0.0	0	0	0	FR2	0	R1006P
215.079	7.344	204638	PROB	7.344	n/a	n/a	-999	0	1	[4, 8, 4]	16	0	1	0	n/a	n/a	0.0	0	0	0	FR2	0	R1006P
222.423	0.008	208398	STOP	n/a	n/a	n/a	-999	0	1	[-999, -999, -999]	n/a	0	1	0	n/a	n/a	0.0	0	0	0	FR2	0	R1006P
222.431	1.034	208402	DISTRACT_END	n/a	n/a	n/a	-999	0	1	[0, 0, 0]	n/a	0	1	0	n/a	n/a	0.0	0	0	0	FR2	0	R1006P
223.465	1.789	208932	REC_START	n/a	n/a	n/a	-999	0	1	[0, 0, 0]	n/a	0	1	0	n/a	n/a	0.0	0	0	0	FR2	0	R1006P
225.254	0.775	209848	REC_WORD_VV	1.789	n/a	<>	-999	0	1	[0, 0, 0]	n/a	0	1	0	n/a	n/a	0.0	0	0	0	FR2	0	R1006P
226.029	0.95	210244	REC_WORD	2.564	n/a	CLOUD	1	1	1	[0, 0, 0]	n/a	0	1	0	n/a	n/a	0.0	0	0	0	FR2	0	R1006P
226.979	2.595	210731	REC_WORD	3.514	n/a	JUDGE	2	1	1	[0, 0, 0]	n/a	0	1	0	n/a	n/a	0.0	0	0	0	FR2	0	R1006P
229.574	16.702	212059	REC_WORD	6.109	n/a	HEART	10	1	1	[0, 0, 0]	n/a	0	1	0	n/a	n/a	0.0	0	0	0	FR2	0	R1006P
246.276	7.034	220610	REC_WORD	22.811	n/a	BOOK	-999	0	1	[0, 0, 0]	n/a	0	1	0	n/a	n/a	0.0	0	0	0	FR2	0	R1006P
253.31	0.167	224211	REC_WORD_VV	29.845	n/a	<>	-999	0	1	[0, 0, 0]	n/a	0	1	0	n/a	n/a	0.0	0	0	0	FR2	0	R1006P
253.477	2.877	224297	REC_END	n/a	n/a	n/a	-999	0	1	[0, 0, 0]	n/a	0	1	0	n/a	n/a	0.0	0	0	0	FR2	0	R1006P
256.354	0.0	225770	TRIAL	n/a	n/a	n/a	-999	0	2	[0, 0, 0]	n/a	0	1	0	n/a	n/a	0.0	0	0	0	FR2	0	R1006P
256.354	10.0	225770	COUNTDOWN_START	n/a	n/a	n/a	-999	0	2	[0, 0, 0]	n/a	0	1	0	n/a	n/a	0.0	0	0	0	FR2	0	R1006P
266.782	0.007	231109	COUNTDOWN_END	n/a	n/a	n/a	-999	0	2	[0, 0, 0]	n/a	0	1	0	n/a	n/a	0.0	0	0	0	FR2	0	R1006P
266.789	1.6	231112	ORIENT	n/a	n/a	n/a	-999	0	2	[0, 0, 0]	n/a	0	1	0	n/a	n/a	0.0	0	0	0	FR2	0	R1006P
269.156	4.6	232324	STIM_ON	n/a	n/a	n/a	-999	0	2	[0, 0, 0]	n/a	1	1	4600	DEC3	DEC4	1000.0	50	230	300	FR2	0	R1006P
269.373	1.6	232435	WORD	n/a	wordpools/wordpool_EN.txt	PIT	1	1	2	[0, 0, 0]	n/a	1	1	4600	DEC3	DEC4	1000.0	50	230	300	FR2	0	R1006P
271.923	1.6	233741	WORD	n/a	wordpools/wordpool_EN.txt	HILL	2	1	2	[0, 0, 0]	n/a	1	1	4600	DEC3	DEC4	1000.0	50	230	300	FR2	0	R1006P
274.457	1.6	235038	WORD	n/a	wordpools/wordpool_EN.txt	BROOM	3	1	2	[0, 0, 0]	n/a	0	1	0	n/a	n/a	0.0	0	0	0	FR2	0	R1006P
277.074	1.6	236378	WORD	n/a	wordpools/wordpool_EN.txt	ARK	4	0	2	[0, 0, 0]	n/a	0	1	0	n/a	n/a	0.0	0	0	0	FR2	0	R1006P
279.287	4.6	237511	STIM_ON	n/a	n/a	n/a	-999	0	2	[0, 0, 0]	n/a	1	1	4600	DEC3	DEC4	1000.0	50	230	300	FR2	0	R1006P
279.492	1.6	237616	WORD	n/a	wordpools/wordpool_EN.txt	STRAW	5	0	2	[0, 0, 0]	n/a	1	1	4600	DEC3	DEC4	1000.0	50	230	300	FR2	0	R1006P
281.892	1.6	238845	WORD	n/a	wordpools/wordpool_EN.txt	STONE	6	0	2	[0, 0, 0]	n/a	1	1	4600	DEC3	DEC4	1000.0	50	230	300	FR2	0	R1006P
284.392	1.6	240125	WORD	n/a	wordpools/wordpool_EN.txt	TREE	7	0	2	[0, 0, 0]	n/a	0	1	0	n/a	n/a	0.0	0	0	0	FR2	0	R1006P
286.993	1.6	241456	WORD	n/a	wordpools/wordpool_EN.txt	SNOW	8	0	2	[0, 0, 0]	n/a	0	1	0	n/a	n/a	0.0	0	0	0	FR2	0	R1006P
289.297	4.6	242636	STIM_ON	n/a	n/a	n/a	-999	0	2	[0, 0, 0]	n/a	1	1	4600	DEC3	DEC4	1000.0	50	230	300	FR2	0	R1006P
289.509	1.6	242744	WORD	n/a	wordpools/wordpool_EN.txt	OAK	9	0	2	[0, 0, 0]	n/a	1	1	4600	DEC3	DEC4	1000.0	50	230	300	FR2	0	R1006P
292.044	1.6	244042	WORD	n/a	wordpools/wordpool_EN.txt	FACE	10	0	2	[0, 0, 0]	n/a	1	1	4600	DEC3	DEC4	1000.0	50	230	300	FR2	0	R1006P
294.661	1.6	245382	WORD	n/a	wordpools/wordpool_EN.txt	NEST	11	0	2	[0, 0, 0]	n/a	0	1	0	n/a	n/a	0.0	0	0	0	FR2	0	R1006P
297.245	1.6	246705	WORD	n/a	wordpools/wordpool_EN.txt	LAWN	12	0	2	[0, 0, 0]	n/a	0	1	0	n/a	n/a	0.0	0	0	0	FR2	0	R1006P
298.862	0.001	247533	DISTRACT_START	n/a	n/a	n/a	-999	0	2	[0, 0, 0]	n/a	0	1	0	n/a	n/a	0.0	0	0	0	FR2	0	R1006P
298.863	0.016	247533	START	n/a	n/a	n/a	-999	0	2	[-999, -999, -999]	n/a	0	1	0	n/a	n/a	0.0	0	0	0	FR2	0	R1006P
298.879	3.133	247542	PROB	3.112	n/a	n/a	-999	0	2	[3, 5, 5]	13	0	1	0	n/a	n/a	0.0	0	0	0	FR2	0	R1006P
302.012	6.818	249146	PROB	6.786	n/a	n/a	-999	0	2	[7, 4, 9]	20	0	1	0	n/a	n/a	0.0	0	0	0	FR2	0	R1006P
308.83	3.284	252636	PROB	3.249	n/a	n/a	-999	0	2	[7, 5, 5]	17	0	1	0	n/a	n/a	0.0	0	0	0	FR2	0	R1006P
312.114	5.751	254318	PROB	5.717	n/a	n/a	-999	0	2	[3, 4, 7]	14	0	1	0	n/a	n/a	0.0	0	0	0	FR2	0	R1006P
317.865	2.63	257262	PROB	2.63	n/a	n/a	-999	0	2	[2, 6, 4]	12	0	1	0	n/a	n/a	0.0	0	0	0	FR2	0	R1006P
320.495	0.003	258608	STOP	n/a	n/a	n/a	-999	0	2	[-999, -999, -999]	n/a	0	1	0	n/a	n/a	0.0	0	0	0	FR2	0	R1006P
320.498	1.102	258610	DISTRACT_END	n/a	n/a	n/a	-999	0	2	[0, 0, 0]	n/a	0	1	0	n/a	n/a	0.0	0	0	0	FR2	0	R1006P
321.6	2.21	259174	REC_START	n/a	n/a	n/a	-999	0	2	[0, 0, 0]	n/a	0	1	0	n/a	n/a	0.0	0	0	0	FR2	0	R1006P
323.81	2.84	260306	REC_WORD	2.21	n/a	HILL	2	1	2	[0, 0, 0]	n/a	0	1	0	n/a	n/a	0.0	0	0	0	FR2	0	R1006P
326.65	10.042	261760	REC_WORD	5.05	n/a	PIT	1	1	2	[0, 0, 0]	n/a	0	1	0	n/a	n/a	0.0	0	0	0	FR2	0	R1006P
336.692	5.411	266901	REC_WORD_VV	15.092	n/a	<>	-999	0	2	[0, 0, 0]	n/a	0	1	0	n/a	n/a	0.0	0	0	0	FR2	0	R1006P
342.103	9.508	269671	REC_WORD	20.503	n/a	BROOM	3	1	2	[0, 0, 0]	n/a	0	1	0	n/a	n/a	0.0	0	0	0	FR2	0	R1006P
351.611	3.145	274539	REC_END	n/a	n/a	n/a	-999	0	2	[0, 0, 0]	n/a	0	1	0	n/a	n/a	0.0	0	0	0	FR2	0	R1006P
354.756	10.0	276149	COUNTDOWN_START	n/a	n/a	n/a	-999	0	3	[0, 0, 0]	n/a	0	1	0	n/a	n/a	0.0	0	0	0	FR2	0	R1006P
354.756	10.428	276149	TRIAL	n/a	n/a	n/a	-999	0	3	[0, 0, 0]	n/a	0	1	0	n/a	n/a	0.0	0	0	0	FR2	0	R1006P
365.184	0.007	281488	COUNTDOWN_END	n/a	n/a	n/a	-999	0	3	[0, 0, 0]	n/a	0	1	0	n/a	n/a	0.0	0	0	0	FR2	0	R1006P
365.191	1.6	281492	ORIENT	n/a	n/a	n/a	-999	0	3	[0, 0, 0]	n/a	0	1	0	n/a	n/a	0.0	0	0	0	FR2	0	R1006P
367.725	1.6	282789	WORD	n/a	wordpools/wordpool_EN.txt	ROOF	1	0	3	[0, 0, 0]	n/a	0	1	0	n/a	n/a	0.0	0	0	0	FR2	0	R1006P
370.259	1.6	284086	WORD	n/a	wordpools/wordpool_EN.txt	POND	2	0	3	[0, 0, 0]	n/a	0	1	0	n/a	n/a	0.0	0	0	0	FR2	0	R1006P
372.502	4.6	285235	STIM_ON	n/a	n/a	n/a	-999	0	3	[0, 0, 0]	n/a	1	1	4600	DEC3	DEC4	1000.0	50	230	300	FR2	0	R1006P
372.709	1.6	285341	WORD	n/a	wordpools/wordpool_EN.txt	RICE	3	0	3	[0, 0, 0]	n/a	1	1	4600	DEC3	DEC4	1000.0	50	230	300	FR2	0	R1006P
375.109	1.6	286569	WORD	n/a	wordpools/wordpool_EN.txt	BLUSH	4	0	3	[0, 0, 0]	n/a	1	1	4600	DEC3	DEC4	1000.0	50	230	300	FR2	0	R1006P
377.476	1.6	287781	WORD	n/a	wordpools/wordpool_EN.txt	GLASS	5	0	3	[0, 0, 0]	n/a	0	1	0	n/a	n/a	0.0	0	0	0	FR2	0	R1006P
380.077	1.6	289113	WORD	n/a	wordpools/wordpool_EN.txt	SNAIL	6	1	3	[0, 0, 0]	n/a	0	1	0	n/a	n/a	0.0	0	0	0	FR2	0	R1006P
382.375	4.6	290289	STIM_ON	n/a	n/a	n/a	-999	0	3	[0, 0, 0]	n/a	1	1	4600	DEC3	DEC4	1000.0	50	230	300	FR2	0	R1006P
382.577	1.6	290393	WORD	n/a	wordpools/wordpool_EN.txt	FOOD	7	1	3	[0, 0, 0]	n/a	1	1	4600	DEC3	DEC4	1000.0	50	230	300	FR2	0	R1006P
385.195	1.6	291733	WORD	n/a	wordpools/wordpool_EN.txt	HOOK	8	1	3	[0, 0, 0]	n/a	1	1	4600	DEC3	DEC4	1000.0	50	230	300	FR2	0	R1006P
387.645	1.6	292987	WORD	n/a	wordpools/wordpool_EN.txt	MILK	9	0	3	[0, 0, 0]	n/a	0	1	0	n/a	n/a	0.0	0	0	0	FR2	0	R1006P
390.196	1.6	294293	WORD	n/a	wordpools/wordpool_EN.txt	TOAD	10	0	3	[0, 0, 0]	n/a	0	1	0	n/a	n/a	0.0	0	0	0	FR2	0	R1006P
392.505	4.6	295476	STIM_ON	n/a	n/a	n/a	-999	0	3	[0, 0, 0]	n/a	1	1	4600	DEC3	DEC4	1000.0	50	230	300	FR2	0	R1006P
392.713	1.6	295582	WORD	n/a	wordpools/wordpool_EN.txt	JAR	11	0	3	[0, 0, 0]	n/a	1	1	4600	DEC3	DEC4	1000.0	50	230	300	FR2	0	R1006P
395.23	1.6	296871	WORD	n/a	wordpools/wordpool_EN.txt	SUN	12	0	3	[0, 0, 0]	n/a	1	1	4600	DEC3	DEC4	1000.0	50	230	300	FR2	0	R1006P
396.847	0.001	297699	DISTRACT_START	n/a	n/a	n/a	-999	0	3	[0, 0, 0]	n/a	1	1	4600	DEC3	DEC4	1000.0	50	230	300	FR2	0	R1006P
396.848	0.016	297699	START	n/a	n/a	n/a	-999	0	3	[-999, -999, -999]	n/a	0	1	0	n/a	n/a	0.0	0	0	0	FR2	0	R1006P
396.864	7.951	297707	PROB	7.927	n/a	n/a	-999	0	3	[6, 8, 8]	22	0	1	0	n/a	n/a	0.0	0	0	0	FR2	0	R1006P
404.815	10.902	301778	PROB	10.88	n/a	n/a	-999	0	3	[8, 6, 9]	23	0	1	0	n/a	n/a	0.0	0	0	0	FR2	0	R1006P
415.717	4.106	307359	PROB	4.106	n/a	n/a	-999	0	3	[5, 4, 6]	16	0	1	0	n/a	n/a	0.0	0	0	0	FR2	0	R1006P
419.823	0.012	309462	STOP	n/a	n/a	n/a	-999	0	3	[-999, -999, -999]	n/a	0	1	0	n/a	n/a	0.0	0	0	0	FR2	0	R1006P
419.835	1.117	309468	DISTRACT_END	n/a	n/a	n/a	-999	0	3	[0, 0, 0]	n/a	0	1	0	n/a	n/a	0.0	0	0	0	FR2	0	R1006P
420.952	2.422	310040	REC_START	n/a	n/a	n/a	-999	0	3	[0, 0, 0]	n/a	0	1	0	n/a	n/a	0.0	0	0	0	FR2	0	R1006P
423.374	6.346	311280	REC_WORD_VV	2.422	n/a	<>	-999	0	3	[0, 0, 0]	n/a	0	1	0	n/a	n/a	0.0	0	0	0	FR2	0	R1006P
429.72	2.758	314529	REC_WORD	8.768	n/a	FOOD	7	1	3	[0, 0, 0]	n/a	0	1	0	n/a	n/a	0.0	0	0	0	FR2	0	R1006P
432.478	2.993	315941	REC_WORD	11.526	n/a	SNAIL	6	1	3	[0, 0, 0]	n/a	0	1	0	n/a	n/a	0.0	0	0	0	FR2	0	R1006P
435.471	14.108	317473	REC_WORD	14.519	n/a	HOOK	8	1	3	[0, 0, 0]	n/a	0	1	0	n/a	n/a	0.0	0	0	0	FR2	0	R1006P
449.579	1.385	324696	REC_WORD_VV	28.627	n/a	<>	-999	0	3	[0, 0, 0]	n/a	0	1	0	n/a	n/a	0.0	0	0	0	FR2	0	R1006P
450.964	1.543	325405	REC_END	n/a	n/a	n/a	-999	0	3	[0, 0, 0]	n/a	0	1	0	n/a	n/a	0.0	0	0	0	FR2	0	R1006P
452.507	0.0	326195	TRIAL	n/a	n/a	n/a	-999	0	4	[0, 0, 0]	n/a	0	1	0	n/a	n/a	0.0	0	0	0	FR2	0	R1006P
452.507	10.0	326195	COUNTDOWN_START	n/a	n/a	n/a	-999	0	4	[0, 0, 0]	n/a	0	1	0	n/a	n/a	0.0	0	0	0	FR2	0	R1006P
462.935	0.008	331534	COUNTDOWN_END	n/a	n/a	n/a	-999	0	4	[0, 0, 0]	n/a	0	1	0	n/a	n/a	0.0	0	0	0	FR2	0	R1006P
462.943	1.6	331538	ORIENT	n/a	n/a	n/a	-999	0	4	[0, 0, 0]	n/a	0	1	0	n/a	n/a	0.0	0	0	0	FR2	0	R1006P
465.543	1.6	332869	WORD	n/a	wordpools/wordpool_EN.txt	HOUSE	1	1	4	[0, 0, 0]	n/a	0	1	0	n/a	n/a	0.0	0	0	0	FR2	0	R1006P
468.027	1.6	334141	WORD	n/a	wordpools/wordpool_EN.txt	MAZE	2	0	4	[0, 0, 0]	n/a	0	1	0	n/a	n/a	0.0	0	0	0	FR2	0	R1006P
470.382	4.6	335346	STIM_ON	n/a	n/a	n/a	-999	0	4	[0, 0, 0]	n/a	1	1	4600	DEC3	DEC4	1000.0	50	230	300	FR2	0	R1006P
470.594	1.6	335455	WORD	n/a	wordpools/wordpool_EN.txt	BATH	3	0	4	[0, 0, 0]	n/a	1	1	4600	DEC3	DEC4	1000.0	50	230	300	FR2	0	R1006P
473.211	1.6	336795	WORD	n/a	wordpools/wordpool_EN.txt	SNAKE	4	0	4	[0, 0, 0]	n/a	1	1	4600	DEC3	DEC4	1000.0	50	230	300	FR2	0	R1006P
475.629	1.6	338033	WORD	n/a	wordpools/wordpool_EN.txt	DITCH	5	1	4	[0, 0, 0]	n/a	0	1	0	n/a	n/a	0.0	0	0	0	FR2	0	R1006P
478.229	1.6	339364	WORD	n/a	wordpools/wordpool_EN.txt	STREET	6	0	4	[0, 0, 0]	n/a	0	1	0	n/a	n/a	0.0	0	0	0	FR2	0	R1006P
480.47	4.6	340511	STIM_ON	n/a	n/a	n/a	-999	0	4	[0, 0, 0]	n/a	1	1	4600	DEC3	DEC4	1000.0	50	230	300	FR2	0	R1006P
480.679	1.6	340618	WORD	n/a	wordpools/wordpool_EN.txt	MUD	7	1	4	[0, 0, 0]	n/a	1	1	4600	DEC3	DEC4	1000.0	50	230	300	FR2	0	R1006P
483.18	1.6	341899	WORD	n/a	wordpools/wordpool_EN.txt	SWAMP	8	1	4	[0, 0, 0]	n/a	1	1	4600	DEC3	DEC4	1000.0	50	230	300	FR2	0	R1006P
485.73	1.6	343204	WORD	n/a	wordpools/wordpool_EN.txt	VINE	9	1	4	[0, 0, 0]	n/a	0	1	0	n/a	n/a	0.0	0	0	0	FR2	0	R1006P
488.247	1.6	344493	WORD	n/a	wordpools/wordpool_EN.txt	SKY	10	0	4	[0, 0, 0]	n/a	0	1	0	n/a	n/a	0.0	0	0	0	FR2	0	R1006P
490.56	4.6	345677	STIM_ON	n/a	n/a	n/a	-999	0	4	[0, 0, 0]	n/a	1	1	4600	DEC3	DEC4	1000.0	50	230	300	FR2	0	R1006P
490.765	1.6	345782	WORD	n/a	wordpools/wordpool_EN.txt	EEL	11	0	4	[0, 0, 0]	n/a	1	1	4600	DEC3	DEC4	1000.0	50	230	300	FR2	0	R1006P
493.365	1.6	347113	WORD	n/a	wordpools/wordpool_EN.txt	STAIR	12	0	4	[0, 0, 0]	n/a	1	1	4600	DEC3	DEC4	1000.0	50	230	300	FR2	0	R1006P
494.982	0.001	347941	DISTRACT_START	n/a	n/a	n/a	-999	0	4	[0, 0, 0]	n/a	1	1	4600	DEC3	DEC4	1000.0	50	230	300	FR2	0	R1006P
494.983	0.016	347942	START	n/a	n/a	n/a	-999	0	4	[-999, -999, -999]	n/a	0	1	0	n/a	n/a	0.0	0	0	0	FR2	0	R1006P
494.999	5.334	347950	PROB	5.312	n/a	n/a	-999	0	4	[5, 7, 1]	13	0	1	0	n/a	n/a	0.0	0	0	0	FR2	0	R1006P
500.333	10.135	350681	PROB	10.114	n/a	n/a	-999	0	4	[6, 2, 5]	13	0	1	0	n/a	n/a	0.0	0	0	0	FR2	0	R1006P
510.468	5.499	355869	PROB	5.499	n/a	n/a	-999	0	4	[3, 2, 8]	13	0	1	0	n/a	n/a	0.0	0	0	0	FR2	0	R1006P
515.967	0.019	358685	STOP	n/a	n/a	n/a	-999	0	4	[-999, -999, -999]	n/a	0	1	0	n/a	n/a	0.0	0	0	0	FR2	0	R1006P
515.986	1.034	358694	DISTRACT_END	n/a	n/a	n/a	-999	0	4	[0, 0, 0]	n/a	0	1	0	n/a	n/a	0.0	0	0	0	FR2	0	R1006P
517.02	2.395	359224	REC_START	n/a	n/a	n/a	-999	0	4	[0, 0, 0]	n/a	0	1	0	n/a	n/a	0.0	0	0	0	FR2	0	R1006P
519.415	3.028	360450	REC_WORD	2.395	n/a	DITCH	5	1	4	[0, 0, 0]	n/a	0	1	0	n/a	n/a	0.0	0	0	0	FR2	0	R1006P
522.443	8.751	362000	REC_WORD	5.423	n/a	HOUSE	1	1	4	[0, 0, 0]	n/a	0	1	0	n/a	n/a	0.0	0	0	0	FR2	0	R1006P
531.194	0.995	366481	REC_WORD	14.174	n/a	POND	-999	0	4	[0, 0, 0]	n/a	0	1	0	n/a	n/a	0.0	0	0	0	FR2	0	R1006P
532.189	5.363	366990	REC_WORD	15.169	n/a	MUD	7	1	4	[0, 0, 0]	n/a	0	1	0	n/a	n/a	0.0	0	0	0	FR2	0	R1006P
537.552	4.661	369736	REC_WORD	20.532	n/a	SWAMP	8	1	4	[0, 0, 0]	n/a	0	1	0	n/a	n/a	0.0	0	0	0	FR2	0	R1006P
542.213	4.818	372122	REC_WORD	25.193	n/a	VINE	9	1	4	[0, 0, 0]	n/a	0	1	0	n/a	n/a	0.0	0	0	0	FR2	0	R1006P
547.031	3.411	374589	REC_END	n/a	n/a	n/a	-999	0	4	[0, 0, 0]	n/a	0	1	0	n/a	n/a	0.0	0	0	0	FR2	0	R1006P
550.442	10.0	376335	COUNTDOWN_START	n/a	n/a	n/a	-999	0	5	[0, 0, 0]	n/a	0	0	0	n/a	n/a	0.0	0	0	0	FR2	0	R1006P
550.443	10.427	376336	TRIAL	n/a	n/a	n/a	-999	0	5	[0, 0, 0]	n/a	0	0	0	n/a	n/a	0.0	0	0	0	FR2	0	R1006P
560.87	0.008	381674	COUNTDOWN_END	n/a	n/a	n/a	-999	0	5	[0, 0, 0]	n/a	0	0	0	n/a	n/a	0.0	0	0	0	FR2	0	R1006P
560.878	1.6	381678	ORIENT	n/a	n/a	n/a	-999	0	5	[0, 0, 0]	n/a	0	0	0	n/a	n/a	0.0	0	0	0	FR2	0	R1006P
563.278	1.6	382907	WORD	n/a	wordpools/wordpool_EN.txt	BLOOM	1	0	5	[0, 0, 0]	n/a	0	0	0	n/a	n/a	0.0	0	0	0	FR2	0	R1006P
565.862	1.6	384230	WORD	n/a	wordpools/wordpool_EN.txt	BARN	2	0	5	[0, 0, 0]	n/a	0	0	0	n/a	n/a	0.0	0	0	0	FR2	0	R1006P
568.379	1.6	385518	WORD	n/a	wordpools/wordpool_EN.txt	PEN	3	0	5	[0, 0, 0]	n/a	0	0	0	n/a	n/a	0.0	0	0	0	FR2	0	R1006P
570.813	1.6	386764	WORD	n/a	wordpools/wordpool_EN.txt	WHEEL	4	0	5	[0, 0, 0]	n/a	0	0	0	n/a	n/a	0.0	0	0	0	FR2	0	R1006P
573.314	1.6	388045	WORD	n/a	wordpools/wordpool_EN.txt	BRICK	5	0	5	[0, 0, 0]	n/a	0	0	0	n/a	n/a	0.0	0	0	0	FR2	0	R1006P
575.847	1.6	389342	WORD	n/a	wordpools/wordpool_EN.txt	SALT	6	0	5	[0, 0, 0]	n/a	0	0	0	n/a	n/a	0.0	0	0	0	FR2	0	R1006P
578.414	1.6	390656	WORD	n/a	wordpools/wordpool_EN.txt	MOLE	7	0	5	[0, 0, 0]	n/a	0	0	0	n/a	n/a	0.0	0	0	0	FR2	0	R1006P
580.798	1.6	391877	WORD	n/a	wordpools/wordpool_EN.txt	MOTH	8	0	5	[0, 0, 0]	n/a	0	0	0	n/a	n/a	0.0	0	0	0	FR2	0	R1006P
583.332	1.6	393174	WORD	n/a	wordpools/wordpool_EN.txt	DOG	9	0	5	[0, 0, 0]	n/a	0	0	0	n/a	n/a	0.0	0	0	0	FR2	0	R1006P
585.949	1.6	394514	WORD	n/a	wordpools/wordpool_EN.txt	FLEA	10	0	5	[0, 0, 0]	n/a	0	0	0	n/a	n/a	0.0	0	0	0	FR2	0	R1006P
588.483	1.6	395811	WORD	n/a	wordpools/wordpool_EN.txt	STEAM	11	0	5	[0, 0, 0]	n/a	0	0	0	n/a	n/a	0.0	0	0	0	FR2	0	R1006P
591.067	1.6	397134	WORD	n/a	wordpools/wordpool_EN.txt	KITE	12	0	5	[0, 0, 0]	n/a	0	0	0	n/a	n/a	0.0	0	0	0	FR2	0	R1006P
592.684	0.001	397962	DISTRACT_START	n/a	n/a	n/a	-999	0	5	[0, 0, 0]	n/a	0	0	0	n/a	n/a	0.0	0	0	0	FR2	0	R1006P
592.685	0.016	397962	START	n/a	n/a	n/a	-999	0	5	[-999, -999, -999]	n/a	0	0	0	n/a	n/a	0.0	0	0	0	FR2	0	R1006P
592.701	9.901	397971	PROB	9.874	n/a	n/a	-999	0	5	[3, 6, 7]	16	0	0	0	n/a	n/a	0.0	0	0	0	FR2	0	R1006P
602.602	7.302	403040	PROB	7.269	n/a	n/a	-999	0	5	[9, 4, 8]	21	0	0	0	n/a	n/a	0.0	0	0	0	FR2	0	R1006P
609.904	4.023	406778	PROB	4.023	n/a	n/a	-999	0	5	[1, 5, 1]	7	0	0	0	n/a	n/a	0.0	0	0	0	FR2	0	R1006P
613.927	0.011	408838	STOP	n/a	n/a	n/a	-999	0	5	[-999, -999, -999]	n/a	0	0	0	n/a	n/a	0.0	0	0	0	FR2	0	R1006P
613.938	1.084	408843	DISTRACT_END	n/a	n/a	n/a	-999	0	5	[0, 0, 0]	n/a	0	0	0	n/a	n/a	0.0	0	0	0	FR2	0	R1006P
615.022	26.528	409398	REC_START	n/a	n/a	n/a	-999	0	5	[0, 0, 0]	n/a	0	0	0	n/a	n/a	0.0	0	0	0	FR2	0	R1006P
641.55	3.483	422980	REC_WORD_VV	26.528	n/a	<>	-999	0	5	[0, 0, 0]	n/a	0	0	0	n/a	n/a	0.0	0	0	0	FR2	0	R1006P
645.033	3.061	424763	REC_END	n/a	n/a	n/a	-999	0	5	[0, 0, 0]	n/a	0	0	0	n/a	n/a	0.0	0	0	0	FR2	0	R1006P
648.094	10.0	426330	COUNTDOWN_START	n/a	n/a	n/a	-999	0	6	[0, 0, 0]	n/a	0	1	0	n/a	n/a	0.0	0	0	0	FR2	0	R1006P
648.095	10.427	426331	TRIAL	n/a	n/a	n/a	-999	0	6	[0, 0, 0]	n/a	0	1	0	n/a	n/a	0.0	0	0	0	FR2	0	R1006P
658.522	0.007	431669	COUNTDOWN_END	n/a	n/a	n/a	-999	0	6	[0, 0, 0]	n/a	0	1	0	n/a	n/a	0.0	0	0	0	FR2	0	R1006P
658.529	1.6	431673	ORIENT	n/a	n/a	n/a	-999	0	6	[0, 0, 0]	n/a	0	1	0	n/a	n/a	0.0	0	0	0	FR2	0	R1006P
661.163	1.6	433021	WORD	n/a	wordpools/wordpool_EN.txt	THREAD	1	1	6	[0, 0, 0]	n/a	0	1	0	n/a	n/a	0.0	0	0	0	FR2	0	R1006P
663.614	1.6	434276	WORD	n/a	wordpools/wordpool_EN.txt	SHOE	2	0	6	[0, 0, 0]	n/a	0	1	0	n/a	n/a	0.0	0	0	0	FR2	0	R1006P
666.024	4.6	435510	STIM_ON	n/a	n/a	n/a	-999	0	6	[0, 0, 0]	n/a	1	1	4600	DEC3	DEC4	1000.0	50	230	300	FR2	0	R1006P
666.231	1.6	435616	WORD	n/a	wordpools/wordpool_EN.txt	LIP	3	1	6	[0, 0, 0]	n/a	1	1	4600	DEC3	DEC4	1000.0	50	230	300	FR2	0	R1006P
668.665	1.6	436862	WORD	n/a	wordpools/wordpool_EN.txt	SUIT	4	0	6	[0, 0, 0]	n/a	1	1	4600	DEC3	DEC4	1000.0	50	230	300	FR2	0	R1006P
671.165	1.6	438142	WORD	n/a	wordpools/wordpool_EN.txt	RUG	5	0	6	[0, 0, 0]	n/a	0	1	0	n/a	n/a	0.0	0	0	0	FR2	0	R1006P
673.732	1.6	439456	WORD	n/a	wordpools/wordpool_EN.txt	SHIELD	6	1	6	[0, 0, 0]	n/a	0	1	0	n/a	n/a	0.0	0	0	0	FR2	0	R1006P
676.055	4.6	440646	STIM_ON	n/a	n/a	n/a	-999	0	6	[0, 0, 0]	n/a	1	1	4600	DEC3	DEC4	1000.0	50	230	300	FR2	0	R1006P
676.266	1.6	440754	WORD	n/a	wordpools/wordpool_EN.txt	SIGN	7	0	6	[0, 0, 0]	n/a	1	1	4600	DEC3	DEC4	1000.0	50	230	300	FR2	0	R1006P
678.75	1.6	442025	WORD	n/a	wordpools/wordpool_EN.txt	BEAK	8	1	6	[0, 0, 0]	n/a	1	1	4600	DEC3	DEC4	1000.0	50	230	300	FR2	0	R1006P
681.334	1.6	443348	WORD	n/a	wordpools/wordpool_EN.txt	PANTS	9	0	6	[0, 0, 0]	n/a	0	1	0	n/a	n/a	0.0	0	0	0	FR2	0	R1006P
683.834	1.6	444628	WORD	n/a	wordpools/wordpool_EN.txt	SOAP	10	0	6	[0, 0, 0]	n/a	0	1	0	n/a	n/a	0.0	0	0	0	FR2	0	R1006P
686.234	4.6	445857	STIM_ON	n/a	n/a	n/a	-999	0	6	[0, 0, 0]	n/a	1	1	4600	DEC3	DEC4	1000.0	50	230	300	FR2	0	R1006P
686.452	1.6	445969	WORD	n/a	wordpools/wordpool_EN.txt	CLOWN	11	0	6	[0, 0, 0]	n/a	1	1	4600	DEC3	DEC4	1000.0	50	230	300	FR2	0	R1006P
688.935	1.6	447240	WORD	n/a	wordpools/wordpool_EN.txt	LAMP	12	0	6	[0, 0, 0]	n/a	1	1	4600	DEC3	DEC4	1000.0	50	230	300	FR2	0	R1006P
690.552	0.001	448068	DISTRACT_START	n/a	n/a	n/a	-999	0	6	[0, 0, 0]	n/a	1	1	4600	DEC3	DEC4	1000.0	50	230	300	FR2	0	R1006P
690.553	0.016	448068	START	n/a	n/a	n/a	-999	0	6	[-999, -999, -999]	n/a	0	1	0	n/a	n/a	0.0	0	0	0	FR2	0	R1006P
690.569	8.035	448076	PROB	8.014	n/a	n/a	-999	0	6	[7, 5, 3]	15	0	1	0	n/a	n/a	0.0	0	0	0	FR2	0	R1006P
698.604	4.634	452190	PROB	4.603	n/a	n/a	-999	0	6	[5, 2, 4]	11	0	1	0	n/a	n/a	0.0	0	0	0	FR2	0	R1006P
703.238	7.873	454563	PROB	7.873	n/a	n/a	-999	0	6	[8, 6, 1]	15	0	1	0	n/a	n/a	0.0	0	0	0	FR2	0	R1006P
711.111	0.012	458593	STOP	n/a	n/a	n/a	-999	0	6	[-999, -999, -999]	n/a	0	1	0	n/a	n/a	0.0	0	0	0	FR2	0	R1006P
711.123	1.067	458599	DISTRACT_END	n/a	n/a	n/a	-999	0	6	[0, 0, 0]	n/a	0	1	0	n/a	n/a	0.0	0	0	0	FR2	0	R1006P
712.19	1.535	459146	REC_START	n/a	n/a	n/a	-999	0	6	[0, 0, 0]	n/a	0	1	0	n/a	n/a	0.0	0	0	0	FR2	0	R1006P
713.725	0.672	459932	REC_WORD	1.535	n/a	THREAD	1	1	6	[0, 0, 0]	n/a	0	1	0	n/a	n/a	0.0	0	0	0	FR2	0	R1006P
714.397	1.135	460276	REC_WORD	2.207	n/a	SHIELD	6	1	6	[0, 0, 0]	n/a	0	1	0	n/a	n/a	0.0	0	0	0	FR2	0	R1006P
715.532	0.684	460857	REC_WORD	3.342	n/a	LIP	3	1	6	[0, 0, 0]	n/a	0	1	0	n/a	n/a	0.0	0	0	0	FR2	0	R1006P
716.216	3.302	461207	REC_WORD	4.026	n/a	SHIELD	6	1	6	[0, 0, 0]	n/a	0	1	0	n/a	n/a	0.0	0	0	0	FR2	0	R1006P
719.518	3.908	462897	REC_WORD_VV	7.328	n/a	<>	-999	0	6	[0, 0, 0]	n/a	0	1	0	n/a	n/a	0.0	0	0	0	FR2	0	R1006P
723.426	14.737	464898	REC_WORD	11.236	n/a	BEAK	8	1	6	[0, 0, 0]	n/a	0	1	0	n/a	n/a	0.0	0	0	0	FR2	0	R1006P
738.163	3.548	472443	REC_WORD_VV	25.973	n/a	<>	-999	0	6	[0, 0, 0]	n/a	0	1	0	n/a	n/a	0.0	0	0	0	FR2	0	R1006P
741.711	0.494	474260	REC_WORD_VV	29.521	n/a	<>	-999	0	6	[0, 0, 0]	n/a	0	1	0	n/a	n/a	0.0	0	0	0	FR2	0	R1006P
742.205	2.808	474513	REC_END	n/a	n/a	n/a	-999	0	6	[0, 0, 0]	n/a	0	1	0	n/a	n/a	0.0	0	0	0	FR2	0	R1006P
745.013	0.0	475950	TRIAL	n/a	n/a	n/a	-999	0	7	[0, 0, 0]	n/a	0	1	0	n/a	n/a	0.0	0	0	0	FR2	0	R1006P
745.013	10.0	475950	COUNTDOWN_START	n/a	n/a	n/a	-999	0	7	[0, 0, 0]	n/a	0	1	0	n/a	n/a	0.0	0	0	0	FR2	0	R1006P
755.441	0.007	481289	COUNTDOWN_END	n/a	n/a	n/a	-999	0	7	[0, 0, 0]	n/a	0	1	0	n/a	n/a	0.0	0	0	0	FR2	0	R1006P
755.448	1.6	481293	ORIENT	n/a	n/a	n/a	-999	0	7	[0, 0, 0]	n/a	0	1	0	n/a	n/a	0.0	0	0	0	FR2	0	R1006P
757.982	1.6	482590	WORD	n/a	wordpools/wordpool_EN.txt	FOG	1	1	7	[0, 0, 0]	n/a	0	1	0	n/a	n/a	0.0	0	0	0	FR2	0	R1006P
760.498	1.6	483878	WORD	n/a	wordpools/wordpool_EN.txt	BED	2	0	7	[0, 0, 0]	n/a	0	1	0	n/a	n/a	0.0	0	0	0	FR2	0	R1006P
762.792	4.6	485053	STIM_ON	n/a	n/a	n/a	-999	0	7	[0, 0, 0]	n/a	1	1	4600	DEC3	DEC4	1000.0	50	230	300	FR2	0	R1006P
762.999	1.6	485159	WORD	n/a	wordpools/wordpool_EN.txt	GEESE	3	0	7	[0, 0, 0]	n/a	1	1	4600	DEC3	DEC4	1000.0	50	230	300	FR2	0	R1006P
765.383	1.6	486379	WORD	n/a	wordpools/wordpool_EN.txt	COW	4	0	7	[0, 0, 0]	n/a	1	1	4600	DEC3	DEC4	1000.0	50	230	300	FR2	0	R1006P
767.967	1.6	487702	WORD	n/a	wordpools/wordpool_EN.txt	BOARD	5	0	7	[0, 0, 0]	n/a	0	1	0	n/a	n/a	0.0	0	0	0	FR2	0	R1006P
770.551	1.6	489025	WORD	n/a	wordpools/wordpool_EN.txt	BRIDGE	6	0	7	[0, 0, 0]	n/a	0	1	0	n/a	n/a	0.0	0	0	0	FR2	0	R1006P
772.741	4.6	490146	STIM_ON	n/a	n/a	n/a	-999	0	7	[0, 0, 0]	n/a	1	1	4600	DEC3	DEC4	1000.0	50	230	300	FR2	0	R1006P
772.951	1.6	490254	WORD	n/a	wordpools/wordpool_EN.txt	BOAT	7	0	7	[0, 0, 0]	n/a	1	1	4600	DEC3	DEC4	1000.0	50	230	300	FR2	0	R1006P
775.517	1.6	491567	WORD	n/a	wordpools/wordpool_EN.txt	SLUSH	8	0	7	[0, 0, 0]	n/a	1	1	4600	DEC3	DEC4	1000.0	50	230	300	FR2	0	R1006P
777.886	1.6	492780	WORD	n/a	wordpools/wordpool_EN.txt	VAN	9	0	7	[0, 0, 0]	n/a	0	1	0	n/a	n/a	0.0	0	0	0	FR2	0	R1006P
780.269	1.6	494000	WORD	n/a	wordpools/wordpool_EN.txt	GUARD	10	0	7	[0, 0, 0]	n/a	0	1	0	n/a	n/a	0.0	0	0	0	FR2	0	R1006P
782.52	4.6	495153	STIM_ON	n/a	n/a	n/a	-999	0	7	[0, 0, 0]	n/a	1	1	4600	DEC3	DEC4	1000.0	50	230	300	FR2	0	R1006P
782.736	1.6	495263	WORD	n/a	wordpools/wordpool_EN.txt	LAMB	11	0	7	[0, 0, 0]	n/a	1	1	4600	DEC3	DEC4	1000.0	50	230	300	FR2	0	R1006P
785.22	1.6	496535	WORD	n/a	wordpools/wordpool_EN.txt	STOVE	12	0	7	[0, 0, 0]	n/a	1	1	4600	DEC3	DEC4	1000.0	50	230	300	FR2	0	R1006P
786.837	0.001	497363	DISTRACT_START	n/a	n/a	n/a	-999	0	7	[0, 0, 0]	n/a	1	1	4600	DEC3	DEC4	1000.0	50	230	300	FR2	0	R1006P
786.838	0.016	497363	START	n/a	n/a	n/a	-999	0	7	[-999, -999, -999]	n/a	0	1	0	n/a	n/a	0.0	0	0	0	FR2	0	R1006P
786.854	4.617	497372	PROB	4.585	n/a	n/a	-999	0	7	[3, 7, 9]	19	0	1	0	n/a	n/a	0.0	0	0	0	FR2	0	R1006P
791.471	3.718	499735	PROB	3.688	n/a	n/a	-999	0	7	[8, 8, 2]	18	0	1	0	n/a	n/a	0.0	0	0	0	FR2	0	R1006P
795.189	3.85	501639	PROB	3.826	n/a	n/a	-999	0	7	[6, 6, 3]	15	0	1	0	n/a	n/a	0.0	0	0	0	FR2	0	R1006P
799.039	2.251	503610	PROB	2.224	n/a	n/a	-999	0	7	[4, 1, 4]	9	0	1	0	n/a	n/a	0.0	0	0	0	FR2	0	R1006P
801.29	5.534	504762	PROB	5.509	n/a	n/a	-999	0	7	[4, 1, 3]	8	0	1	0	n/a	n/a	0.0	0	0	0	FR2	0	R1006P
806.824	3.694	507596	PROB	3.694	n/a	n/a	-999	0	7	[9, 8, 2]	19	0	1	0	n/a	n/a	0.0	0	0	0	FR2	0	R1006P
810.518	0.006	509487	STOP	n/a	n/a	n/a	-999	0	7	[-999, -999, -999]	n/a	0	1	0	n/a	n/a	0.0	0	0	0	FR2	0	R1006P
810.524	1.135	509490	DISTRACT_END	n/a	n/a	n/a	-999	0	7	[0, 0, 0]	n/a	0	1	0	n/a	n/a	0.0	0	0	0	FR2	0	R1006P
811.659	2.624	510071	REC_START	n/a	n/a	n/a	-999	0	7	[0, 0, 0]	n/a	0	1	0	n/a	n/a	0.0	0	0	0	FR2	0	R1006P
814.283	3.367	511415	REC_WORD_VV	2.624	n/a	<>	-999	0	7	[0, 0, 0]	n/a	0	1	0	n/a	n/a	0.0	0	0	0	FR2	0	R1006P
817.65	6.362	513138	REC_WORD	5.991	n/a	FOG	1	1	7	[0, 0, 0]	n/a	0	1	0	n/a	n/a	0.0	0	0	0	FR2	0	R1006P
824.012	13.992	516396	REC_WORD_VV	12.353	n/a	<>	-999	0	7	[0, 0, 0]	n/a	0	1	0	n/a	n/a	0.0	0	0	0	FR2	0	R1006P
838.004	2.166	523559	REC_WORD	26.345	n/a	BEARD	-999	0	7	[0, 0, 0]	n/a	0	1	0	n/a	n/a	0.0	0	0	0	FR2	0	R1006P
840.17	1.505	524668	REC_WORD	28.511	n/a	BEAK	-999	0	7	[0, 0, 0]	n/a	0	1	0	n/a	n/a	0.0	0	0	0	FR2	0	R1006P
841.675	2.623	525439	REC_END	n/a	n/a	n/a	-999	0	7	[0, 0, 0]	n/a	0	1	0	n/a	n/a	0.0	0	0	0	FR2	0	R1006P
844.298	0.0	526781	TRIAL	n/a	n/a	n/a	-999	0	8	[0, 0, 0]	n/a	0	1	0	n/a	n/a	0.0	0	0	0	FR2	0	R1006P
844.298	10.0	526781	COUNTDOWN_START	n/a	n/a	n/a	-999	0	8	[0, 0, 0]	n/a	0	1	0	n/a	n/a	0.0	0	0	0	FR2	0	R1006P
854.726	0.007	532120	COUNTDOWN_END	n/a	n/a	n/a	-999	0	8	[0, 0, 0]	n/a	0	1	0	n/a	n/a	0.0	0	0	0	FR2	0	R1006P
854.733	1.6	532124	ORIENT	n/a	n/a	n/a	-999	0	8	[0, 0, 0]	n/a	0	1	0	n/a	n/a	0.0	0	0	0	FR2	0	R1006P
857.056	4.6	533313	STIM_ON	n/a	n/a	n/a	-999	0	8	[0, 0, 0]	n/a	1	1	4600	DEC3	DEC4	1000.0	50	230	300	FR2	0	R1006P
857.267	1.6	533421	WORD	n/a	wordpools/wordpool_EN.txt	CASH	1	1	8	[0, 0, 0]	n/a	1	1	4600	DEC3	DEC4	1000.0	50	230	300	FR2	0	R1006P
859.718	1.6	534676	WORD	n/a	wordpools/wordpool_EN.txt	TOOTH	2	1	8	[0, 0, 0]	n/a	1	1	4600	DEC3	DEC4	1000.0	50	230	300	FR2	0	R1006P
862.218	1.6	535956	WORD	n/a	wordpools/wordpool_EN.txt	SPONGE	3	1	8	[0, 0, 0]	n/a	0	1	0	n/a	n/a	0.0	0	0	0	FR2	0	R1006P
864.835	1.6	537296	WORD	n/a	wordpools/wordpool_EN.txt	WORLD	4	1	8	[0, 0, 0]	n/a	0	1	0	n/a	n/a	0.0	0	0	0	FR2	0	R1006P
867.035	4.6	538422	STIM_ON	n/a	n/a	n/a	-999	0	8	[0, 0, 0]	n/a	1	1	4600	DEC3	DEC4	1000.0	50	230	300	FR2	0	R1006P
867.252	1.6	538533	WORD	n/a	wordpools/wordpool_EN.txt	SEED	5	1	8	[0, 0, 0]	n/a	1	1	4600	DEC3	DEC4	1000.0	50	230	300	FR2	0	R1006P
869.686	1.6	539779	WORD	n/a	wordpools/wordpool_EN.txt	BRUSH	6	1	8	[0, 0, 0]	n/a	1	1	4600	DEC3	DEC4	1000.0	50	230	300	FR2	0	R1006P
872.27	1.6	541102	WORD	n/a	wordpools/wordpool_EN.txt	BANK	7	0	8	[0, 0, 0]	n/a	0	1	0	n/a	n/a	0.0	0	0	0	FR2	0	R1006P
874.837	1.6	542417	WORD	n/a	wordpools/wordpool_EN.txt	ANT	8	0	8	[0, 0, 0]	n/a	0	1	0	n/a	n/a	0.0	0	0	0	FR2	0	R1006P
877.233	4.6	543643	STIM_ON	n/a	n/a	n/a	-999	0	8	[0, 0, 0]	n/a	1	1	4600	DEC3	DEC4	1000.0	50	230	300	FR2	0	R1006P
877.438	1.6	543748	WORD	n/a	wordpools/wordpool_EN.txt	LEAF	9	0	8	[0, 0, 0]	n/a	1	1	4600	DEC3	DEC4	1000.0	50	230	300	FR2	0	R1006P
879.938	1.6	545028	WORD	n/a	wordpools/wordpool_EN.txt	BRANCH	10	0	8	[0, 0, 0]	n/a	1	1	4600	DEC3	DEC4	1000.0	50	230	300	FR2	0	R1006P
882.488	1.6	546334	WORD	n/a	wordpools/wordpool_EN.txt	CORD	11	0	8	[0, 0, 0]	n/a	0	1	0	n/a	n/a	0.0	0	0	0	FR2	0	R1006P
885.055	1.6	547648	WORD	n/a	wordpools/wordpool_EN.txt	STEM	12	0	8	[0, 0, 0]	n/a	0	1	0	n/a	n/a	0.0	0	0	0	FR2	0	R1006P
886.673	0.0	548476	DISTRACT_START	n/a	n/a	n/a	-999	0	8	[0, 0, 0]	n/a	0	1	0	n/a	n/a	0.0	0	0	0	FR2	0	R1006P
886.673	0.016	548476	START	n/a	n/a	n/a	-999	0	8	[-999, -999, -999]	n/a	0	1	0	n/a	n/a	0.0	0	0	0	FR2	0	R1006P
886.689	4.601	548484	PROB	4.574	n/a	n/a	-999	0	8	[1, 4, 6]	11	0	1	0	n/a	n/a	0.0	0	0	0	FR2	0	R1006P
891.29	3.784	550840	PROB	3.749	n/a	n/a	-999	0	8	[1, 1, 2]	4	0	1	0	n/a	n/a	0.0	0	0	0	FR2	0	R1006P
895.074	5.185	552777	PROB	5.165	n/a	n/a	-999	0	8	[7, 1, 1]	9	0	1	0	n/a	n/a	0.0	0	0	0	FR2	0	R1006P
900.259	10.556	555432	PROB	10.556	n/a	n/a	-999	0	8	[4, 7, 4]	15	0	1	0	n/a	n/a	0.0	0	0	0	FR2	0	R1006P
910.815	0.012	560836	STOP	n/a	n/a	n/a	-999	0	8	[-999, -999, -999]	n/a	0	1	0	n/a	n/a	0.0	0	0	0	FR2	0	R1006P
910.827	1.201	560843	DISTRACT_END	n/a	n/a	n/a	-999	0	8	[0, 0, 0]	n/a	0	1	0	n/a	n/a	0.0	0	0	0	FR2	0	R1006P
912.028	1.499	561457	REC_START	n/a	n/a	n/a	-999	0	8	[0, 0, 0]	n/a	0	1	0	n/a	n/a	0.0	0	0	0	FR2	0	R1006P
913.527	0.686	562225	REC_WORD	1.499	n/a	CASH	1	1	8	[0, 0, 0]	n/a	0	1	0	n/a	n/a	0.0	0	0	0	FR2	0	R1006P
914.213	0.596	562576	REC_WORD	2.185	n/a	TOOTH	2	1	8	[0, 0, 0]	n/a	0	1	0	n/a	n/a	0.0	0	0	0	FR2	0	R1006P
914.809	0.846	562881	REC_WORD	2.781	n/a	SPONGE	3	1	8	[0, 0, 0]	n/a	0	1	0	n/a	n/a	0.0	0	0	0	FR2	0	R1006P
915.655	8.982	563314	REC_WORD	3.627	n/a	WORLD	4	1	8	[0, 0, 0]	n/a	0	1	0	n/a	n/a	0.0	0	0	0	FR2	0	R1006P
924.637	10.544	567913	REC_WORD	12.609	n/a	BRUSH	6	1	8	[0, 0, 0]	n/a	0	1	0	n/a	n/a	0.0	0	0	0	FR2	0	R1006P
935.181	6.857	573311	REC_WORD	23.153	n/a	SEED	5	1	8	[0, 0, 0]	n/a	0	1	0	n/a	n/a	0.0	0	0	0	FR2	0	R1006P
942.038	2.229	576822	REC_END	n/a	n/a	n/a	-999	0	8	[0, 0, 0]	n/a	0	1	0	n/a	n/a	0.0	0	0	0	FR2	0	R1006P
944.267	10.0	577963	COUNTDOWN_START	n/a	n/a	n/a	-999	0	9	[0, 0, 0]	n/a	0	1	0	n/a	n/a	0.0	0	0	0	FR2	0	R1006P
944.267	10.428	577963	TRIAL	n/a	n/a	n/a	-999	0	9	[0, 0, 0]	n/a	0	1	0	n/a	n/a	0.0	0	0	0	FR2	0	R1006P
954.695	0.007	583302	COUNTDOWN_END	n/a	n/a	n/a	-999	0	9	[0, 0, 0]	n/a	0	1	0	n/a	n/a	0.0	0	0	0	FR2	0	R1006P
954.702	1.6	583305	ORIENT	n/a	n/a	n/a	-999	0	9	[0, 0, 0]	n/a	0	1	0	n/a	n/a	0.0	0	0	0	FR2	0	R1006P
957.253	1.6	584611	WORD	n/a	wordpools/wordpool_EN.txt	WOOD	1	0	9	[0, 0, 0]	n/a	0	1	0	n/a	n/a	0.0	0	0	0	FR2	0	R1006P
959.753	1.6	585891	WORD	n/a	wordpools/wordpool_EN.txt	HAT	2	0	9	[0, 0, 0]	n/a	0	1	0	n/a	n/a	0.0	0	0	0	FR2	0	R1006P
962.108	4.6	587097	STIM_ON	n/a	n/a	n/a	-999	0	9	[0, 0, 0]	n/a	1	1	4600	DEC3	DEC4	1000.0	50	230	300	FR2	0	R1006P
962.32	1.6	587206	WORD	n/a	wordpools/wordpool_EN.txt	JET	3	0	9	[0, 0, 0]	n/a	1	1	4600	DEC3	DEC4	1000.0	50	230	300	FR2	0	R1006P
964.754	1.6	588452	WORD	n/a	wordpools/wordpool_EN.txt	FOAM	4	1	9	[0, 0, 0]	n/a	1	1	4600	DEC3	DEC4	1000.0	50	230	300	FR2	0	R1006P
967.205	1.6	589707	WORD	n/a	wordpools/wordpool_EN.txt	BAT	5	1	9	[0, 0, 0]	n/a	0	1	0	n/a	n/a	0.0	0	0	0	FR2	0	R1006P
969.822	1.6	591046	WORD	n/a	wordpools/wordpool_EN.txt	ROOM	6	1	9	[0, 0, 0]	n/a	0	1	0	n/a	n/a	0.0	0	0	0	FR2	0	R1006P
972.1	4.6	592213	STIM_ON	n/a	n/a	n/a	-999	0	9	[0, 0, 0]	n/a	1	1	4600	DEC3	DEC4	1000.0	50	230	300	FR2	0	R1006P
972.305	1.6	592318	WORD	n/a	wordpools/wordpool_EN.txt	WING	7	0	9	[0, 0, 0]	n/a	1	1	4600	DEC3	DEC4	1000.0	50	230	300	FR2	0	R1006P
974.689	1.6	593538	WORD	n/a	wordpools/wordpool_EN.txt	SLIME	8	0	9	[0, 0, 0]	n/a	1	1	4600	DEC3	DEC4	1000.0	50	230	300	FR2	0	R1006P
977.223	1.6	594835	WORD	n/a	wordpools/wordpool_EN.txt	BOWL	9	0	9	[0, 0, 0]	n/a	0	1	0	n/a	n/a	0.0	0	0	0	FR2	0	R1006P
979.74	1.6	596124	WORD	n/a	wordpools/wordpool_EN.txt	FUR	10	0	9	[0, 0, 0]	n/a	0	1	0	n/a	n/a	0.0	0	0	0	FR2	0	R1006P
982.064	4.6	597314	STIM_ON	n/a	n/a	n/a	-999	0	9	[0, 0, 0]	n/a	1	1	4600	DEC3	DEC4	1000.0	50	230	300	FR2	0	R1006P
982.274	1.6	597421	WORD	n/a	wordpools/wordpool_EN.txt	PIN	11	0	9	[0, 0, 0]	n/a	1	1	4600	DEC3	DEC4	1000.0	50	230	300	FR2	0	R1006P
984.741	1.6	598684	WORD	n/a	wordpools/wordpool_EN.txt	SPARK	12	0	9	[0, 0, 0]	n/a	1	1	4600	DEC3	DEC4	1000.0	50	230	300	FR2	0	R1006P
986.358	0.001	599512	DISTRACT_START	n/a	n/a	n/a	-999	0	9	[0, 0, 0]	n/a	1	1	4600	DEC3	DEC4	1000.0	50	230	300	FR2	0	R1006P
986.359	0.016	599513	START	n/a	n/a	n/a	-999	0	9	[-999, -999, -999]	n/a	0	1	0	n/a	n/a	0.0	0	0	0	FR2	0	R1006P
986.375	5.517	599521	PROB	5.496	n/a	n/a	-999	0	9	[5, 3, 3]	11	0	1	0	n/a	n/a	0.0	0	0	0	FR2	0	R1006P
991.892	3.868	602346	PROB	3.835	n/a	n/a	-999	0	9	[7, 7, 4]	18	0	1	0	n/a	n/a	0.0	0	0	0	FR2	0	R1006P
995.76	10.671	604326	PROB	10.671	n/a	n/a	-999	0	9	[9, 8, 7]	24	0	1	0	n/a	n/a	0.0	0	0	0	FR2	0	R1006P
1006.431	0.014	609789	STOP	n/a	n/a	n/a	-999	0	9	[-999, -999, -999]	n/a	0	1	0	n/a	n/a	0.0	0	0	0	FR2	0	R1006P
1006.445	1.12	609796	DISTRACT_END	n/a	n/a	n/a	-999	0	9	[0, 0, 0]	n/a	0	1	0	n/a	n/a	0.0	0	0	0	FR2	0	R1006P
1007.565	1.594	610370	REC_START	n/a	n/a	n/a	-999	0	9	[0, 0, 0]	n/a	0	1	0	n/a	n/a	0.0	0	0	0	FR2	0	R1006P
1009.159	0.534	611186	REC_WORD	1.594	n/a	BAT	5	1	9	[0, 0, 0]	n/a	0	1	0	n/a	n/a	0.0	0	0	0	FR2	0	R1006P
1009.693	2.619	611459	REC_WORD	2.128	n/a	ROOM	6	1	9	[0, 0, 0]	n/a	0	1	0	n/a	n/a	0.0	0	0	0	FR2	0	R1006P
1012.312	8.433	612800	REC_WORD_VV	4.747	n/a	<>	-999	0	9	[0, 0, 0]	n/a	0	1	0	n/a	n/a	0.0	0	0	0	FR2	0	R1006P
1020.745	16.829	617118	REC_WORD	13.18	n/a	FOAM	4	1	9	[0, 0, 0]	n/a	0	1	0	n/a	n/a	0.0	0	0	0	FR2	0	R1006P
1037.574	2.228	625734	REC_END	n/a	n/a	n/a	-999	0	9	[0, 0, 0]	n/a	0	1	0	n/a	n/a	0.0	0	0	0	FR2	0	R1006P
1039.802	0.0	626874	TRIAL	n/a	n/a	n/a	-999	0	10	[0, 0, 0]	n/a	0	1	0	n/a	n/a	0.0	0	0	0	FR2	0	R1006P
1039.802	10.0	626874	COUNTDOWN_START	n/a	n/a	n/a	-999	0	10	[0, 0, 0]	n/a	0	1	0	n/a	n/a	0.0	0	0	0	FR2	0	R1006P
1050.23	0.007	632213	COUNTDOWN_END	n/a	n/a	n/a	-999	0	10	[0, 0, 0]	n/a	0	1	0	n/a	n/a	0.0	0	0	0	FR2	0	R1006P
1050.237	1.6	632217	ORIENT	n/a	n/a	n/a	-999	0	10	[0, 0, 0]	n/a	0	1	0	n/a	n/a	0.0	0	0	0	FR2	0	R1006P
1052.468	4.6	633359	STIM_ON	n/a	n/a	n/a	-999	0	10	[0, 0, 0]	n/a	1	1	4600	DEC3	DEC4	1000.0	50	230	300	FR2	0	R1006P
1052.67	1.6	633462	WORD	n/a	wordpools/wordpool_EN.txt	INK	1	0	10	[0, 0, 0]	n/a	1	1	4600	DEC3	DEC4	1000.0	50	230	300	FR2	0	R1006P
1055.088	1.6	634700	WORD	n/a	wordpools/wordpool_EN.txt	TEA	2	0	10	[0, 0, 0]	n/a	1	1	4600	DEC3	DEC4	1000.0	50	230	300	FR2	0	R1006P
1057.705	1.6	636040	WORD	n/a	wordpools/wordpool_EN.txt	TOY	3	0	10	[0, 0, 0]	n/a	0	1	0	n/a	n/a	0.0	0	0	0	FR2	0	R1006P
1060.172	1.6	637303	WORD	n/a	wordpools/wordpool_EN.txt	MULE	4	1	10	[0, 0, 0]	n/a	0	1	0	n/a	n/a	0.0	0	0	0	FR2	0	R1006P
1062.459	4.6	638474	STIM_ON	n/a	n/a	n/a	-999	0	10	[0, 0, 0]	n/a	1	1	4600	DEC3	DEC4	1000.0	50	230	300	FR2	0	R1006P
1062.673	1.6	638584	WORD	n/a	wordpools/wordpool_EN.txt	BOY	5	1	10	[0, 0, 0]	n/a	1	1	4600	DEC3	DEC4	1000.0	50	230	300	FR2	0	R1006P
1065.09	1.6	639821	WORD	n/a	wordpools/wordpool_EN.txt	TIE	6	0	10	[0, 0, 0]	n/a	1	1	4600	DEC3	DEC4	1000.0	50	230	300	FR2	0	R1006P
1067.69	1.6	641152	WORD	n/a	wordpools/wordpool_EN.txt	CLOTH	7	0	10	[0, 0, 0]	n/a	0	1	0	n/a	n/a	0.0	0	0	0	FR2	0	R1006P
1070.091	1.6	642381	WORD	n/a	wordpools/wordpool_EN.txt	SPRING	8	0	10	[0, 0, 0]	n/a	0	1	0	n/a	n/a	0.0	0	0	0	FR2	0	R1006P
1072.497	4.6	643613	STIM_ON	n/a	n/a	n/a	-999	0	10	[0, 0, 0]	n/a	1	1	4600	DEC3	DEC4	1000.0	50	230	300	FR2	0	R1006P
1072.708	1.6	643721	WORD	n/a	wordpools/wordpool_EN.txt	SQUARE	9	0	10	[0, 0, 0]	n/a	1	1	4600	DEC3	DEC4	1000.0	50	230	300	FR2	0	R1006P
1075.258	1.6	645027	WORD	n/a	wordpools/wordpool_EN.txt	PEACH	10	1	10	[0, 0, 0]	n/a	1	1	4600	DEC3	DEC4	1000.0	50	230	300	FR2	0	R1006P
1077.859	1.6	646358	WORD	n/a	wordpools/wordpool_EN.txt	TOOL	11	1	10	[0, 0, 0]	n/a	0	1	0	n/a	n/a	0.0	0	0	0	FR2	0	R1006P
1080.259	1.6	647587	WORD	n/a	wordpools/wordpool_EN.txt	PLATE	12	0	10	[0, 0, 0]	n/a	0	1	0	n/a	n/a	0.0	0	0	0	FR2	0	R1006P
1081.876	0.001	648415	DISTRACT_START	n/a	n/a	n/a	-999	0	10	[0, 0, 0]	n/a	0	1	0	n/a	n/a	0.0	0	0	0	FR2	0	R1006P
1081.877	0.016	648416	START	n/a	n/a	n/a	-999	0	10	[-999, -999, -999]	n/a	0	1	0	n/a	n/a	0.0	0	0	0	FR2	0	R1006P
1081.893	6.684	648424	PROB	6.65	n/a	n/a	-999	0	10	[9, 9, 4]	22	0	1	0	n/a	n/a	0.0	0	0	0	FR2	0	R1006P
1088.577	8.535	651846	PROB	8.502	n/a	n/a	-999	0	10	[8, 3, 6]	17	0	1	0	n/a	n/a	0.0	0	0	0	FR2	0	R1006P
1097.112	13.063	656215	PROB	13.063	n/a	n/a	-999	0	10	[5, 8, 2]	25	0	1	0	n/a	n/a	0.0	0	0	0	FR2	0	R1006P
1110.175	0.006	662903	STOP	n/a	n/a	n/a	-999	0	10	[-999, -999, -999]	n/a	0	1	0	n/a	n/a	0.0	0	0	0	FR2	0	R1006P
1110.181	1.035	662906	DISTRACT_END	n/a	n/a	n/a	-999	0	10	[0, 0, 0]	n/a	0	1	0	n/a	n/a	0.0	0	0	0	FR2	0	R1006P
1111.216	6.742	663436	REC_START	n/a	n/a	n/a	-999	0	10	[0, 0, 0]	n/a	0	1	0	n/a	n/a	0.0	0	0	0	FR2	0	R1006P
1117.958	0.637	666888	REC_WORD	6.742	n/a	BOY	5	1	10	[0, 0, 0]	n/a	0	1	0	n/a	n/a	0.0	0	0	0	FR2	0	R1006P
1118.595	1.648	667214	REC_WORD	7.379	n/a	PEACH	10	1	10	[0, 0, 0]	n/a	0	1	0	n/a	n/a	0.0	0	0	0	FR2	0	R1006P
1120.243	2.322	668058	REC_WORD	9.027	n/a	TOOL	11	1	10	[0, 0, 0]	n/a	0	1	0	n/a	n/a	0.0	0	0	0	FR2	0	R1006P
1122.565	6.37	669247	REC_WORD_VV	11.349	n/a	<>	-999	0	10	[0, 0, 0]	n/a	0	1	0	n/a	n/a	0.0	0	0	0	FR2	0	R1006P
1128.935	3.92	672508	REC_WORD	17.719	n/a	BAT	-999	0	10	[0, 0, 0]	n/a	0	1	0	n/a	n/a	0.0	0	0	0	FR2	0	R1006P
1132.855	8.372	674515	REC_WORD	21.639	n/a	MULE	4	1	10	[0, 0, 0]	n/a	0	1	0	n/a	n/a	0.0	0	0	0	FR2	0	R1006P
1141.227	2.161	678801	REC_END	n/a	n/a	n/a	-999	0	10	[0, 0, 0]	n/a	0	1	0	n/a	n/a	0.0	0	0	0	FR2	0	R1006P
1143.388	10.0	679908	COUNTDOWN_START	n/a	n/a	n/a	-999	0	11	[0, 0, 0]	n/a	0	1	0	n/a	n/a	0.0	0	0	0	FR2	0	R1006P
1143.388	10.428	679908	TRIAL	n/a	n/a	n/a	-999	0	11	[0, 0, 0]	n/a	0	1	0	n/a	n/a	0.0	0	0	0	FR2	0	R1006P
1153.816	0.007	685246	COUNTDOWN_END	n/a	n/a	n/a	-999	0	11	[0, 0, 0]	n/a	0	1	0	n/a	n/a	0.0	0	0	0	FR2	0	R1006P
1153.823	1.6	685250	ORIENT	n/a	n/a	n/a	-999	0	11	[0, 0, 0]	n/a	0	1	0	n/a	n/a	0.0	0	0	0	FR2	0	R1006P
1156.44	1.6	686590	WORD	n/a	wordpools/wordpool_EN.txt	SPEAR	1	0	11	[0, 0, 0]	n/a	0	1	0	n/a	n/a	0.0	0	0	0	FR2	0	R1006P
1159.007	1.6	687904	WORD	n/a	wordpools/wordpool_EN.txt	HOLE	2	0	11	[0, 0, 0]	n/a	0	1	0	n/a	n/a	0.0	0	0	0	FR2	0	R1006P
1161.302	4.6	689079	STIM_ON	n/a	n/a	n/a	-999	0	11	[0, 0, 0]	n/a	1	1	4600	DEC3	DEC4	1000.0	50	230	300	FR2	0	R1006P
1161.507	1.6	689184	WORD	n/a	wordpools/wordpool_EN.txt	BUSH	3	0	11	[0, 0, 0]	n/a	1	1	4600	DEC3	DEC4	1000.0	50	230	300	FR2	0	R1006P
1163.975	1.6	690447	WORD	n/a	wordpools/wordpool_EN.txt	CHIN	4	0	11	[0, 0, 0]	n/a	1	1	4600	DEC3	DEC4	1000.0	50	230	300	FR2	0	R1006P
1166.508	1.6	691744	WORD	n/a	wordpools/wordpool_EN.txt	CHEEK	5	0	11	[0, 0, 0]	n/a	0	1	0	n/a	n/a	0.0	0	0	0	FR2	0	R1006P
1168.926	1.6	692982	WORD	n/a	wordpools/wordpool_EN.txt	PALM	6	0	11	[0, 0, 0]	n/a	0	1	0	n/a	n/a	0.0	0	0	0	FR2	0	R1006P
1171.139	4.6	694115	STIM_ON	n/a	n/a	n/a	-999	0	11	[0, 0, 0]	n/a	1	1	4600	DEC3	DEC4	1000.0	50	230	300	FR2	0	R1006P
1171.343	1.6	694220	WORD	n/a	wordpools/wordpool_EN.txt	FLOOR	7	0	11	[0, 0, 0]	n/a	1	1	4600	DEC3	DEC4	1000.0	50	230	300	FR2	0	R1006P
1173.894	1.6	695526	WORD	n/a	wordpools/wordpool_EN.txt	CONE	8	1	11	[0, 0, 0]	n/a	1	1	4600	DEC3	DEC4	1000.0	50	230	300	FR2	0	R1006P
1176.361	1.6	696789	WORD	n/a	wordpools/wordpool_EN.txt	LOCK	9	0	11	[0, 0, 0]	n/a	0	1	0	n/a	n/a	0.0	0	0	0	FR2	0	R1006P
1178.761	1.6	698018	WORD	n/a	wordpools/wordpool_EN.txt	SWORD	10	1	11	[0, 0, 0]	n/a	0	1	0	n/a	n/a	0.0	0	0	0	FR2	0	R1006P
1181.147	4.6	699239	STIM_ON	n/a	n/a	n/a	-999	0	11	[0, 0, 0]	n/a	1	1	4600	DEC3	DEC4	1000.0	50	230	300	FR2	0	R1006P
1181.362	1.6	699349	WORD	n/a	wordpools/wordpool_EN.txt	FROG	11	0	11	[0, 0, 0]	n/a	1	1	4600	DEC3	DEC4	1000.0	50	230	300	FR2	0	R1006P
1183.962	1.6	700680	WORD	n/a	wordpools/wordpool_EN.txt	FLAME	12	0	11	[0, 0, 0]	n/a	1	1	4600	DEC3	DEC4	1000.0	50	230	300	FR2	0	R1006P
1185.579	0.001	701508	DISTRACT_START	n/a	n/a	n/a	-999	0	11	[0, 0, 0]	n/a	1	1	4600	DEC3	DEC4	1000.0	50	230	300	FR2	0	R1006P
1185.58	0.016	701509	START	n/a	n/a	n/a	-999	0	11	[-999, -999, -999]	n/a	0	1	0	n/a	n/a	0.0	0	0	0	FR2	0	R1006P
1185.596	5.818	701517	PROB	5.795	n/a	n/a	-999	0	11	[3, 8, 3]	14	0	1	0	n/a	n/a	0.0	0	0	0	FR2	0	R1006P
1191.414	9.935	704496	PROB	9.905	n/a	n/a	-999	0	11	[6, 8, 6]	20	0	1	0	n/a	n/a	0.0	0	0	0	FR2	0	R1006P
1201.349	6.034	709582	PROB	6.034	n/a	n/a	-999	0	11	[6, 8, 1]	15	0	1	0	n/a	n/a	0.0	0	0	0	FR2	0	R1006P
1207.383	0.017	712671	STOP	n/a	n/a	n/a	-999	0	11	[-999, -999, -999]	n/a	0	1	0	n/a	n/a	0.0	0	0	0	FR2	0	R1006P
1207.4	1.201	712680	DISTRACT_END	n/a	n/a	n/a	-999	0	11	[0, 0, 0]	n/a	0	1	0	n/a	n/a	0.0	0	0	0	FR2	0	R1006P
1208.601	3.356	713295	REC_START	n/a	n/a	n/a	-999	0	11	[0, 0, 0]	n/a	0	1	0	n/a	n/a	0.0	0	0	0	FR2	0	R1006P
1211.957	5.209	715013	REC_WORD_VV	3.356	n/a	<>	-999	0	11	[0, 0, 0]	n/a	0	1	0	n/a	n/a	0.0	0	0	0	FR2	0	R1006P
1217.166	1.427	717680	REC_WORD	8.565	n/a	SWORD	10	1	11	[0, 0, 0]	n/a	0	1	0	n/a	n/a	0.0	0	0	0	FR2	0	R1006P
1218.593	3.05	718410	REC_WORD	9.992	n/a	CONE	8	1	11	[0, 0, 0]	n/a	0	1	0	n/a	n/a	0.0	0	0	0	FR2	0	R1006P
1221.643	10.408	719972	REC_WORD_VV	13.042	n/a	<>	-999	0	11	[0, 0, 0]	n/a	0	1	0	n/a	n/a	0.0	0	0	0	FR2	0	R1006P
1232.051	6.561	725301	REC_WORD_VV	23.45	n/a	<>	-999	0	11	[0, 0, 0]	n/a	0	1	0	n/a	n/a	0.0	0	0	0	FR2	0	R1006P
1238.612	2.377	728660	REC_END	n/a	n/a	n/a	-999	0	11	[0, 0, 0]	n/a	0	1	0	n/a	n/a	0.0	0	0	0	FR2	0	R1006P
1240.989	10.0	729877	COUNTDOWN_START	n/a	n/a	n/a	-999	0	12	[0, 0, 0]	n/a	0	0	0	n/a	n/a	0.0	0	0	0	FR2	0	R1006P
1240.99	10.427	729877	TRIAL	n/a	n/a	n/a	-999	0	12	[0, 0, 0]	n/a	0	0	0	n/a	n/a	0.0	0	0	0	FR2	0	R1006P
1251.417	0.008	735215	COUNTDOWN_END	n/a	n/a	n/a	-999	0	12	[0, 0, 0]	n/a	0	0	0	n/a	n/a	0.0	0	0	0	FR2	0	R1006P
1251.425	1.6	735220	ORIENT	n/a	n/a	n/a	-999	0	12	[0, 0, 0]	n/a	0	0	0	n/a	n/a	0.0	0	0	0	FR2	0	R1006P
1253.809	1.6	736440	WORD	n/a	wordpools/wordpool_EN.txt	CHIEF	1	0	12	[0, 0, 0]	n/a	0	0	0	n/a	n/a	0.0	0	0	0	FR2	0	R1006P
1256.192	1.6	737660	WORD	n/a	wordpools/wordpool_EN.txt	SCHOOL	2	0	12	[0, 0, 0]	n/a	0	0	0	n/a	n/a	0.0	0	0	0	FR2	0	R1006P
1258.793	1.6	738992	WORD	n/a	wordpools/wordpool_EN.txt	TRUCK	3	0	12	[0, 0, 0]	n/a	0	0	0	n/a	n/a	0.0	0	0	0	FR2	0	R1006P
1261.293	1.6	740272	WORD	n/a	wordpools/wordpool_EN.txt	SINK	4	0	12	[0, 0, 0]	n/a	0	0	0	n/a	n/a	0.0	0	0	0	FR2	0	R1006P
1263.777	1.6	741543	WORD	n/a	wordpools/wordpool_EN.txt	BADGE	5	0	12	[0, 0, 0]	n/a	0	0	0	n/a	n/a	0.0	0	0	0	FR2	0	R1006P
1266.311	1.6	742841	WORD	n/a	wordpools/wordpool_EN.txt	DRESS	6	0	12	[0, 0, 0]	n/a	0	0	0	n/a	n/a	0.0	0	0	0	FR2	0	R1006P
1268.728	1.6	744078	WORD	n/a	wordpools/wordpool_EN.txt	SPOON	7	0	12	[0, 0, 0]	n/a	0	0	0	n/a	n/a	0.0	0	0	0	FR2	0	R1006P
1271.329	1.6	745410	WORD	n/a	wordpools/wordpool_EN.txt	APE	8	1	12	[0, 0, 0]	n/a	0	0	0	n/a	n/a	0.0	0	0	0	FR2	0	R1006P
1273.912	1.6	746732	WORD	n/a	wordpools/wordpool_EN.txt	DESK	9	0	12	[0, 0, 0]	n/a	0	0	0	n/a	n/a	0.0	0	0	0	FR2	0	R1006P
1276.396	1.6	748004	WORD	n/a	wordpools/wordpool_EN.txt	SEAT	10	0	12	[0, 0, 0]	n/a	0	0	0	n/a	n/a	0.0	0	0	0	FR2	0	R1006P
1278.813	1.6	749241	WORD	n/a	wordpools/wordpool_EN.txt	SMILE	11	1	12	[0, 0, 0]	n/a	0	0	0	n/a	n/a	0.0	0	0	0	FR2	0	R1006P
1281.397	1.6	750564	WORD	n/a	wordpools/wordpool_EN.txt	FLAG	12	1	12	[0, 0, 0]	n/a	0	0	0	n/a	n/a	0.0	0	0	0	FR2	0	R1006P
1283.014	0.001	751392	DISTRACT_START	n/a	n/a	n/a	-999	0	12	[0, 0, 0]	n/a	0	0	0	n/a	n/a	0.0	0	0	0	FR2	0	R1006P
1283.015	0.016	751393	START	n/a	n/a	n/a	-999	0	12	[-999, -999, -999]	n/a	0	0	0	n/a	n/a	0.0	0	0	0	FR2	0	R1006P
1283.031	5.534	751401	PROB	5.503	n/a	n/a	-999	0	12	[4, 1, 1]	6	0	0	0	n/a	n/a	0.0	0	0	0	FR2	0	R1006P
1288.565	4.568	754234	PROB	4.538	n/a	n/a	-999	0	12	[2, 9, 9]	20	0	0	0	n/a	n/a	0.0	0	0	0	FR2	0	R1006P
1293.133	5.701	756573	PROB	5.674	n/a	n/a	-999	0	12	[7, 3, 6]	16	0	0	0	n/a	n/a	0.0	0	0	0	FR2	0	R1006P
1298.834	9.7	759492	PROB	9.7	n/a	n/a	-999	0	12	[5, 8, 9]	22	0	0	0	n/a	n/a	0.0	0	0	0	FR2	0	R1006P
1308.534	0.018	764458	STOP	n/a	n/a	n/a	-999	0	12	[-999, -999, -999]	n/a	0	0	0	n/a	n/a	0.0	0	0	0	FR2	0	R1006P
1308.552	1.151	764467	DISTRACT_END	n/a	n/a	n/a	-999	0	12	[0, 0, 0]	n/a	0	0	0	n/a	n/a	0.0	0	0	0	FR2	0	R1006P
1309.703	14.738	765056	REC_START	n/a	n/a	n/a	-999	0	12	[0, 0, 0]	n/a	0	0	0	n/a	n/a	0.0	0	0	0	FR2	0	R1006P
1324.441	5.138	772602	REC_WORD	14.738	n/a	APE	8	1	12	[0, 0, 0]	n/a	0	0	0	n/a	n/a	0.0	0	0	0	FR2	0	R1006P
1329.579	2.439	775232	REC_WORD	19.876	n/a	SMILE	11	1	12	[0, 0, 0]	n/a	0	0	0	n/a	n/a	0.0	0	0	0	FR2	0	R1006P
1332.018	3.75	776481	REC_WORD	22.315	n/a	CHAIR	-999	0	12	[0, 0, 0]	n/a	0	0	0	n/a	n/a	0.0	0	0	0	FR2	0	R1006P
1335.768	0.471	778401	REC_WORD_VV	26.065	n/a	<>	-999	0	12	[0, 0, 0]	n/a	0	0	0	n/a	n/a	0.0	0	0	0	FR2	0	R1006P
1336.239	3.475	778642	REC_WORD	26.536	n/a	FLAG	12	1	12	[0, 0, 0]	n/a	0	0	0	n/a	n/a	0.0	0	0	0	FR2	0	R1006P
1339.714	2.411	780421	REC_END	n/a	n/a	n/a	-999	0	12	[0, 0, 0]	n/a	0	0	0	n/a	n/a	0.0	0	0	0	FR2	0	R1006P
1342.125	0.0	781656	TRIAL	n/a	n/a	n/a	-999	0	13	[0, 0, 0]	n/a	0	1	0	n/a	n/a	0.0	0	0	0	FR2	0	R1006P
1342.125	10.0	781656	COUNTDOWN_START	n/a	n/a	n/a	-999	0	13	[0, 0, 0]	n/a	0	1	0	n/a	n/a	0.0	0	0	0	FR2	0	R1006P
1352.553	0.008	786994	COUNTDOWN_END	n/a	n/a	n/a	-999	0	13	[0, 0, 0]	n/a	0	1	0	n/a	n/a	0.0	0	0	0	FR2	0	R1006P
1352.561	1.6	786998	ORIENT	n/a	n/a	n/a	-999	0	13	[0, 0, 0]	n/a	0	1	0	n/a	n/a	0.0	0	0	0	FR2	0	R1006P
1354.961	1.6	788227	WORD	n/a	wordpools/wordpool_EN.txt	PHONE	1	0	13	[0, 0, 0]	n/a	0	1	0	n/a	n/a	0.0	0	0	0	FR2	0	R1006P
1357.495	1.6	789525	WORD	n/a	wordpools/wordpool_EN.txt	TOAST	2	0	13	[0, 0, 0]	n/a	0	1	0	n/a	n/a	0.0	0	0	0	FR2	0	R1006P
1359.771	4.6	790690	STIM_ON	n/a	n/a	n/a	-999	0	13	[0, 0, 0]	n/a	1	1	4600	DEC3	DEC4	1000.0	50	230	300	FR2	0	R1006P
1359.979	1.6	790796	WORD	n/a	wordpools/wordpool_EN.txt	TANK	3	0	13	[0, 0, 0]	n/a	1	1	4600	DEC3	DEC4	1000.0	50	230	300	FR2	0	R1006P
1362.446	1.6	792059	WORD	n/a	wordpools/wordpool_EN.txt	PEA	4	0	13	[0, 0, 0]	n/a	1	1	4600	DEC3	DEC4	1000.0	50	230	300	FR2	0	R1006P
1364.996	1.6	793365	WORD	n/a	wordpools/wordpool_EN.txt	CHAIR	5	0	13	[0, 0, 0]	n/a	0	1	0	n/a	n/a	0.0	0	0	0	FR2	0	R1006P
1367.496	1.6	794645	WORD	n/a	wordpools/wordpool_EN.txt	BEAN	6	0	13	[0, 0, 0]	n/a	0	1	0	n/a	n/a	0.0	0	0	0	FR2	0	R1006P
1369.777	4.6	795813	STIM_ON	n/a	n/a	n/a	-999	0	13	[0, 0, 0]	n/a	1	1	4600	DEC3	DEC4	1000.0	50	230	300	FR2	0	R1006P
1369.98	1.6	795917	WORD	n/a	wordpools/wordpool_EN.txt	POOL	7	1	13	[0, 0, 0]	n/a	1	1	4600	DEC3	DEC4	1000.0	50	230	300	FR2	0	R1006P
1372.481	1.6	797197	WORD	n/a	wordpools/wordpool_EN.txt	YARD	8	0	13	[0, 0, 0]	n/a	1	1	4600	DEC3	DEC4	1000.0	50	230	300	FR2	0	R1006P
1374.915	1.6	798443	WORD	n/a	wordpools/wordpool_EN.txt	MUG	9	0	13	[0, 0, 0]	n/a	0	1	0	n/a	n/a	0.0	0	0	0	FR2	0	R1006P
1377.398	1.6	799714	WORD	n/a	wordpools/wordpool_EN.txt	MAIL	10	0	13	[0, 0, 0]	n/a	0	1	0	n/a	n/a	0.0	0	0	0	FR2	0	R1006P
1379.797	4.6	800943	STIM_ON	n/a	n/a	n/a	-999	0	13	[0, 0, 0]	n/a	1	1	4600	DEC3	DEC4	1000.0	50	230	300	FR2	0	R1006P
1379.999	1.6	801046	WORD	n/a	wordpools/wordpool_EN.txt	FAN	11	1	13	[0, 0, 0]	n/a	1	1	4600	DEC3	DEC4	1000.0	50	230	300	FR2	0	R1006P
1382.433	1.6	802292	WORD	n/a	wordpools/wordpool_EN.txt	DIME	12	0	13	[0, 0, 0]	n/a	1	1	4600	DEC3	DEC4	1000.0	50	230	300	FR2	0	R1006P
1384.05	0.001	803120	DISTRACT_START	n/a	n/a	n/a	-999	0	13	[0, 0, 0]	n/a	1	1	4600	DEC3	DEC4	1000.0	50	230	300	FR2	0	R1006P
1384.051	0.015	803121	START	n/a	n/a	n/a	-999	0	13	[-999, -999, -999]	n/a	0	1	0	n/a	n/a	0.0	0	0	0	FR2	0	R1006P
1384.066	3.518	803128	PROB	3.485	n/a	n/a	-999	0	13	[4, 4, 8]	16	0	1	0	n/a	n/a	0.0	0	0	0	FR2	0	R1006P
1387.584	5.084	804929	PROB	5.063	n/a	n/a	-999	0	13	[2, 8, 4]	14	0	1	0	n/a	n/a	0.0	0	0	0	FR2	0	R1006P
1392.668	3.167	807532	PROB	3.131	n/a	n/a	-999	0	13	[3, 7, 9]	19	0	1	0	n/a	n/a	0.0	0	0	0	FR2	0	R1006P
1395.835	7.168	809154	PROB	7.148	n/a	n/a	-999	0	13	[4, 7, 5]	16	0	1	0	n/a	n/a	0.0	0	0	0	FR2	0	R1006P
1403.003	2.98	812823	PROB	2.98	n/a	n/a	-999	0	13	[9, 5, 5]	19	0	1	0	n/a	n/a	0.0	0	0	0	FR2	0	R1006P
1405.983	0.004	814349	STOP	n/a	n/a	n/a	-999	0	13	[-999, -999, -999]	n/a	0	1	0	n/a	n/a	0.0	0	0	0	FR2	0	R1006P
1405.987	1.17	814351	DISTRACT_END	n/a	n/a	n/a	-999	0	13	[0, 0, 0]	n/a	0	1	0	n/a	n/a	0.0	0	0	0	FR2	0	R1006P
1407.157	9.622	814950	REC_START	n/a	n/a	n/a	-999	0	13	[0, 0, 0]	n/a	0	1	0	n/a	n/a	0.0	0	0	0	FR2	0	R1006P
1416.779	11.14	819876	REC_WORD_VV	9.622	n/a	<>	-999	0	13	[0, 0, 0]	n/a	0	1	0	n/a	n/a	0.0	0	0	0	FR2	0	R1006P
1427.919	4.022	825580	REC_WORD	20.762	n/a	POOL	7	1	13	[0, 0, 0]	n/a	0	1	0	n/a	n/a	0.0	0	0	0	FR2	0	R1006P
1431.941	5.225	827639	REC_WORD	24.784	n/a	FAN	11	1	13	[0, 0, 0]	n/a	0	1	0	n/a	n/a	0.0	0	0	0	FR2	0	R1006P
1437.166	1.827	830314	REC_END	n/a	n/a	n/a	-999	0	13	[0, 0, 0]	n/a	0	1	0	n/a	n/a	0.0	0	0	0	FR2	0	R1006P
1438.993	10.0	831249	COUNTDOWN_START	n/a	n/a	n/a	-999	0	14	[0, 0, 0]	n/a	0	1	0	n/a	n/a	0.0	0	0	0	FR2	0	R1006P
1438.994	10.427	831250	TRIAL	n/a	n/a	n/a	-999	0	14	[0, 0, 0]	n/a	0	1	0	n/a	n/a	0.0	0	0	0	FR2	0	R1006P
1449.421	0.008	836588	COUNTDOWN_END	n/a	n/a	n/a	-999	0	14	[0, 0, 0]	n/a	0	1	0	n/a	n/a	0.0	0	0	0	FR2	0	R1006P
1449.429	1.6	836592	ORIENT	n/a	n/a	n/a	-999	0	14	[0, 0, 0]	n/a	0	1	0	n/a	n/a	0.0	0	0	0	FR2	0	R1006P
1451.829	1.6	837821	WORD	n/a	wordpools/wordpool_EN.txt	BOX	1	0	14	[0, 0, 0]	n/a	0	1	0	n/a	n/a	0.0	0	0	0	FR2	0	R1006P
1454.28	1.6	839076	WORD	n/a	wordpools/wordpool_EN.txt	DOOR	2	0	14	[0, 0, 0]	n/a	0	1	0	n/a	n/a	0.0	0	0	0	FR2	0	R1006P
1456.561	4.6	840244	STIM_ON	n/a	n/a	n/a	-999	0	14	[0, 0, 0]	n/a	1	1	4600	DEC3	DEC4	1000.0	50	230	300	FR2	0	R1006P
1456.763	1.6	840347	WORD	n/a	wordpools/wordpool_EN.txt	COUCH	3	0	14	[0, 0, 0]	n/a	1	1	4600	DEC3	DEC4	1000.0	50	230	300	FR2	0	R1006P
1459.297	1.6	841644	WORD	n/a	wordpools/wordpool_EN.txt	SLEEVE	4	0	14	[0, 0, 0]	n/a	1	1	4600	DEC3	DEC4	1000.0	50	230	300	FR2	0	R1006P
1461.815	1.6	842934	WORD	n/a	wordpools/wordpool_EN.txt	PASTE	5	0	14	[0, 0, 0]	n/a	0	1	0	n/a	n/a	0.0	0	0	0	FR2	0	R1006P
1464.331	1.6	844222	WORD	n/a	wordpools/wordpool_EN.txt	CHALK	6	0	14	[0, 0, 0]	n/a	0	1	0	n/a	n/a	0.0	0	0	0	FR2	0	R1006P
1466.744	4.6	845457	STIM_ON	n/a	n/a	n/a	-999	0	14	[0, 0, 0]	n/a	1	1	4600	DEC3	DEC4	1000.0	50	230	300	FR2	0	R1006P
1466.949	1.6	845562	WORD	n/a	wordpools/wordpool_EN.txt	CAGE	7	1	14	[0, 0, 0]	n/a	1	1	4600	DEC3	DEC4	1000.0	50	230	300	FR2	0	R1006P
1469.566	1.6	846902	WORD	n/a	wordpools/wordpool_EN.txt	CUP	8	0	14	[0, 0, 0]	n/a	1	1	4600	DEC3	DEC4	1000.0	50	230	300	FR2	0	R1006P
1471.966	1.6	848131	WORD	n/a	wordpools/wordpool_EN.txt	LEG	9	0	14	[0, 0, 0]	n/a	0	1	0	n/a	n/a	0.0	0	0	0	FR2	0	R1006P
1474.533	1.6	849445	WORD	n/a	wordpools/wordpool_EN.txt	CART	10	0	14	[0, 0, 0]	n/a	0	1	0	n/a	n/a	0.0	0	0	0	FR2	0	R1006P
1476.762	4.6	850586	STIM_ON	n/a	n/a	n/a	-999	0	14	[0, 0, 0]	n/a	1	1	4600	DEC3	DEC4	1000.0	50	230	300	FR2	0	R1006P
1476.967	1.6	850691	WORD	n/a	wordpools/wordpool_EN.txt	STOOL	11	1	14	[0, 0, 0]	n/a	1	1	4600	DEC3	DEC4	1000.0	50	230	300	FR2	0	R1006P
1479.484	1.6	851980	WORD	n/a	wordpools/wordpool_EN.txt	DART	12	0	14	[0, 0, 0]	n/a	1	1	4600	DEC3	DEC4	1000.0	50	230	300	FR2	0	R1006P
1481.101	0.001	852808	DISTRACT_START	n/a	n/a	n/a	-999	0	14	[0, 0, 0]	n/a	1	1	4600	DEC3	DEC4	1000.0	50	230	300	FR2	0	R1006P
1481.102	0.016	852808	START	n/a	n/a	n/a	-999	0	14	[-999, -999, -999]	n/a	0	1	0	n/a	n/a	0.0	0	0	0	FR2	0	R1006P
1481.118	11.152	852816	PROB	11.121	n/a	n/a	-999	0	14	[6, 6, 8]	20	0	1	0	n/a	n/a	0.0	0	0	0	FR2	0	R1006P
1492.27	10.073	858526	PROB	10.073	n/a	n/a	-999	0	14	[2, 9, 3]	14	0	1	0	n/a	n/a	0.0	0	0	0	FR2	0	R1006P
1502.343	0.013	863683	STOP	n/a	n/a	n/a	-999	0	14	[-999, -999, -999]	n/a	0	1	0	n/a	n/a	0.0	0	0	0	FR2	0	R1006P
1502.356	1.134	863689	DISTRACT_END	n/a	n/a	n/a	-999	0	14	[0, 0, 0]	n/a	0	1	0	n/a	n/a	0.0	0	0	0	FR2	0	R1006P
1503.49	6.627	864270	REC_START	n/a	n/a	n/a	-999	0	14	[0, 0, 0]	n/a	0	1	0	n/a	n/a	0.0	0	0	0	FR2	0	R1006P
1510.117	3.661	867663	REC_WORD_VV	6.627	n/a	<>	-999	0	14	[0, 0, 0]	n/a	0	1	0	n/a	n/a	0.0	0	0	0	FR2	0	R1006P
1513.778	3.65	869537	REC_WORD	10.288	n/a	CAGE	7	1	14	[0, 0, 0]	n/a	0	1	0	n/a	n/a	0.0	0	0	0	FR2	0	R1006P
1517.428	1.068	871406	REC_WORD_VV	13.938	n/a	<>	-999	0	14	[0, 0, 0]	n/a	0	1	0	n/a	n/a	0.0	0	0	0	FR2	0	R1006P
1518.496	15.003	871953	REC_WORD	15.006	n/a	STOOL	11	1	14	[0, 0, 0]	n/a	0	1	0	n/a	n/a	0.0	0	0	0	FR2	0	R1006P
1533.499	2.296	879634	REC_END	n/a	n/a	n/a	-999	0	14	[0, 0, 0]	n/a	0	1	0	n/a	n/a	0.0	0	0	0	FR2	0	R1006P
1535.795	0.0	880809	TRIAL	n/a	n/a	n/a	-999	0	15	[0, 0, 0]	n/a	0	1	0	n/a	n/a	0.0	0	0	0	FR2	0	R1006P
1535.795	10.0	880809	COUNTDOWN_START	n/a	n/a	n/a	-999	0	15	[0, 0, 0]	n/a	0	1	0	n/a	n/a	0.0	0	0	0	FR2	0	R1006P
1546.223	0.007	886148	COUNTDOWN_END	n/a	n/a	n/a	-999	0	15	[0, 0, 0]	n/a	0	1	0	n/a	n/a	0.0	0	0	0	FR2	0	R1006P
1546.23	1.6	886152	ORIENT	n/a	n/a	n/a	-999	0	15	[0, 0, 0]	n/a	0	1	0	n/a	n/a	0.0	0	0	0	FR2	0	R1006P
1548.555	4.6	887342	STIM_ON	n/a	n/a	n/a	-999	0	15	[0, 0, 0]	n/a	1	1	4600	DEC3	DEC4	1000.0	50	230	300	FR2	0	R1006P
1548.764	1.6	887449	WORD	n/a	wordpools/wordpool_EN.txt	JEEP	1	0	15	[0, 0, 0]	n/a	1	1	4600	DEC3	DEC4	1000.0	50	230	300	FR2	0	R1006P
1551.215	1.6	888704	WORD	n/a	wordpools/wordpool_EN.txt	SHIRT	2	0	15	[0, 0, 0]	n/a	1	1	4600	DEC3	DEC4	1000.0	50	230	300	FR2	0	R1006P
1553.648	1.6	889950	WORD	n/a	wordpools/wordpool_EN.txt	CAKE	3	0	15	[0, 0, 0]	n/a	0	1	0	n/a	n/a	0.0	0	0	0	FR2	0	R1006P
1556.032	1.6	891170	WORD	n/a	wordpools/wordpool_EN.txt	PARK	4	0	15	[0, 0, 0]	n/a	0	1	0	n/a	n/a	0.0	0	0	0	FR2	0	R1006P
1558.212	4.6	892286	STIM_ON	n/a	n/a	n/a	-999	0	15	[0, 0, 0]	n/a	1	1	4600	DEC3	DEC4	1000.0	50	230	300	FR2	0	R1006P
1558.416	1.6	892391	WORD	n/a	wordpools/wordpool_EN.txt	PIG	5	0	15	[0, 0, 0]	n/a	1	1	4600	DEC3	DEC4	1000.0	50	230	300	FR2	0	R1006P
1560.966	1.6	893696	WORD	n/a	wordpools/wordpool_EN.txt	PLANE	6	1	15	[0, 0, 0]	n/a	1	1	4600	DEC3	DEC4	1000.0	50	230	300	FR2	0	R1006P
1563.45	1.6	894968	WORD	n/a	wordpools/wordpool_EN.txt	MAT	7	1	15	[0, 0, 0]	n/a	0	1	0	n/a	n/a	0.0	0	0	0	FR2	0	R1006P
1565.984	1.6	896265	WORD	n/a	wordpools/wordpool_EN.txt	TRAIN	8	0	15	[0, 0, 0]	n/a	0	1	0	n/a	n/a	0.0	0	0	0	FR2	0	R1006P
1568.347	4.6	897475	STIM_ON	n/a	n/a	n/a	-999	0	15	[0, 0, 0]	n/a	1	1	4600	DEC3	DEC4	1000.0	50	230	300	FR2	0	R1006P
1568.551	1.6	897580	WORD	n/a	wordpools/wordpool_EN.txt	STEAK	9	0	15	[0, 0, 0]	n/a	1	1	4600	DEC3	DEC4	1000.0	50	230	300	FR2	0	R1006P
1571.002	1.6	898834	WORD	n/a	wordpools/wordpool_EN.txt	PURSE	10	0	15	[0, 0, 0]	n/a	1	1	4600	DEC3	DEC4	1000.0	50	230	300	FR2	0	R1006P
1573.518	1.6	900123	WORD	n/a	wordpools/wordpool_EN.txt	FUDGE	11	0	15	[0, 0, 0]	n/a	0	1	0	n/a	n/a	0.0	0	0	0	FR2	0	R1006P
1576.036	1.6	901412	WORD	n/a	wordpools/wordpool_EN.txt	PET	12	0	15	[0, 0, 0]	n/a	0	1	0	n/a	n/a	0.0	0	0	0	FR2	0	R1006P
1577.653	0.001	902240	DISTRACT_START	n/a	n/a	n/a	-999	0	15	[0, 0, 0]	n/a	0	1	0	n/a	n/a	0.0	0	0	0	FR2	0	R1006P
1577.654	0.016	902240	START	n/a	n/a	n/a	-999	0	15	[-999, -999, -999]	n/a	0	1	0	n/a	n/a	0.0	0	0	0	FR2	0	R1006P
1577.67	7.451	902248	PROB	7.417	n/a	n/a	-999	0	15	[9, 5, 3]	17	0	1	0	n/a	n/a	0.0	0	0	0	FR2	0	R1006P
1585.121	4.834	906063	PROB	4.798	n/a	n/a	-999	0	15	[3, 6, 6]	15	0	1	0	n/a	n/a	0.0	0	0	0	FR2	0	R1006P
1589.955	9.476	908538	PROB	9.476	n/a	n/a	-999	0	15	[6, 5, 4]	19	0	1	0	n/a	n/a	0.0	0	0	0	FR2	0	R1006P
1599.431	0.009	913389	STOP	n/a	n/a	n/a	-999	0	15	[-999, -999, -999]	n/a	0	1	0	n/a	n/a	0.0	0	0	0	FR2	0	R1006P
1599.44	1.135	913394	DISTRACT_END	n/a	n/a	n/a	-999	0	15	[0, 0, 0]	n/a	0	1	0	n/a	n/a	0.0	0	0	0	FR2	0	R1006P
1600.575	3.287	913975	REC_START	n/a	n/a	n/a	-999	0	15	[0, 0, 0]	n/a	0	1	0	n/a	n/a	0.0	0	0	0	FR2	0	R1006P
1603.862	0.858	915658	REC_WORD	3.287	n/a	PLANE	6	1	15	[0, 0, 0]	n/a	0	1	0	n/a	n/a	0.0	0	0	0	FR2	0	R1006P
1604.72	0.436	916097	REC_WORD_VV	4.145	n/a	<>	-999	0	15	[0, 0, 0]	n/a	0	1	0	n/a	n/a	0.0	0	0	0	FR2	0	R1006P
1605.156	0.511	916320	REC_WORD	4.581	n/a	PLANE	6	1	15	[0, 0, 0]	n/a	0	1	0	n/a	n/a	0.0	0	0	0	FR2	0	R1006P
1605.667	2.779	916582	REC_WORD	5.092	n/a	MAT	7	1	15	[0, 0, 0]	n/a	0	1	0	n/a	n/a	0.0	0	0	0	FR2	0	R1006P
1608.446	1.0	918005	REC_WORD	7.871	n/a	CHAIR	-999	0	15	[0, 0, 0]	n/a	0	1	0	n/a	n/a	0.0	0	0	0	FR2	0	R1006P
1609.446	11.75	918517	REC_WORD	8.871	n/a	CHAIR	-999	0	15	[0, 0, 0]	n/a	0	1	0	n/a	n/a	0.0	0	0	0	FR2	0	R1006P
1621.196	9.389	924532	REC_WORD_VV	20.621	n/a	<>	-999	0	15	[0, 0, 0]	n/a	0	1	0	n/a	n/a	0.0	0	0	0	FR2	0	R1006P
1630.585	1.528	929339	REC_END	n/a	n/a	n/a	-999	0	15	[0, 0, 0]	n/a	0	1	0	n/a	n/a	0.0	0	0	0	FR2	0	R1006P
1632.113	0.0	930122	TRIAL	n/a	n/a	n/a	-999	0	16	[0, 0, 0]	n/a	0	1	0	n/a	n/a	0.0	0	0	0	FR2	0	R1006P
1632.113	10.0	930122	COUNTDOWN_START	n/a	n/a	n/a	-999	0	16	[0, 0, 0]	n/a	0	1	0	n/a	n/a	0.0	0	0	0	FR2	0	R1006P
1642.541	0.008	935460	COUNTDOWN_END	n/a	n/a	n/a	-999	0	16	[0, 0, 0]	n/a	0	1	0	n/a	n/a	0.0	0	0	0	FR2	0	R1006P
1642.549	1.6	935465	ORIENT	n/a	n/a	n/a	-999	0	16	[0, 0, 0]	n/a	0	1	0	n/a	n/a	0.0	0	0	0	FR2	0	R1006P
1645.016	1.6	936728	WORD	n/a	wordpools/wordpool_EN.txt	CAR	1	1	16	[0, 0, 0]	n/a	0	1	0	n/a	n/a	0.0	0	0	0	FR2	0	R1006P
1647.466	1.6	937982	WORD	n/a	wordpools/wordpool_EN.txt	STORE	2	1	16	[0, 0, 0]	n/a	0	1	0	n/a	n/a	0.0	0	0	0	FR2	0	R1006P
1649.737	4.6	939145	STIM_ON	n/a	n/a	n/a	-999	0	16	[0, 0, 0]	n/a	1	1	4600	DEC3	DEC4	1000.0	50	230	300	FR2	0	R1006P
1649.95	1.6	939254	WORD	n/a	wordpools/wordpool_EN.txt	PLANT	3	1	16	[0, 0, 0]	n/a	1	1	4600	DEC3	DEC4	1000.0	50	230	300	FR2	0	R1006P
1652.483	1.6	940550	WORD	n/a	wordpools/wordpool_EN.txt	ROOT	4	1	16	[0, 0, 0]	n/a	1	1	4600	DEC3	DEC4	1000.0	50	230	300	FR2	0	R1006P
1654.901	1.6	941788	WORD	n/a	wordpools/wordpool_EN.txt	FARM	5	1	16	[0, 0, 0]	n/a	0	1	0	n/a	n/a	0.0	0	0	0	FR2	0	R1006P
1657.385	1.6	943060	WORD	n/a	wordpools/wordpool_EN.txt	JUICE	6	0	16	[0, 0, 0]	n/a	0	1	0	n/a	n/a	0.0	0	0	0	FR2	0	R1006P
1659.759	4.6	944276	STIM_ON	n/a	n/a	n/a	-999	0	16	[0, 0, 0]	n/a	1	1	4600	DEC3	DEC4	1000.0	50	230	300	FR2	0	R1006P
1659.968	1.6	944383	WORD	n/a	wordpools/wordpool_EN.txt	STORM	7	0	16	[0, 0, 0]	n/a	1	1	4600	DEC3	DEC4	1000.0	50	230	300	FR2	0	R1006P
1662.602	1.6	945731	WORD	n/a	wordpools/wordpool_EN.txt	SHEEP	8	0	16	[0, 0, 0]	n/a	1	1	4600	DEC3	DEC4	1000.0	50	230	300	FR2	0	R1006P
1665.086	1.6	947003	WORD	n/a	wordpools/wordpool_EN.txt	ICE	9	0	16	[0, 0, 0]	n/a	0	1	0	n/a	n/a	0.0	0	0	0	FR2	0	R1006P
1667.536	1.6	948257	WORD	n/a	wordpools/wordpool_EN.txt	TRASH	10	0	16	[0, 0, 0]	n/a	0	1	0	n/a	n/a	0.0	0	0	0	FR2	0	R1006P
1669.895	4.6	949465	STIM_ON	n/a	n/a	n/a	-999	0	16	[0, 0, 0]	n/a	1	1	4600	DEC3	DEC4	1000.0	50	230	300	FR2	0	R1006P
1670.104	1.6	949572	WORD	n/a	wordpools/wordpool_EN.txt	CUBE	11	0	16	[0, 0, 0]	n/a	1	1	4600	DEC3	DEC4	1000.0	50	230	300	FR2	0	R1006P
1672.688	1.6	950895	WORD	n/a	wordpools/wordpool_EN.txt	GRAPE	12	1	16	[0, 0, 0]	n/a	1	1	4600	DEC3	DEC4	1000.0	50	230	300	FR2	0	R1006P
1674.305	0.0	951723	DISTRACT_START	n/a	n/a	n/a	-999	0	16	[0, 0, 0]	n/a	1	1	4600	DEC3	DEC4	1000.0	50	230	300	FR2	0	R1006P
1674.305	0.016	951723	START	n/a	n/a	n/a	-999	0	16	[-999, -999, -999]	n/a	0	1	0	n/a	n/a	0.0	0	0	0	FR2	0	R1006P
1674.321	4.217	951731	PROB	4.181	n/a	n/a	-999	0	16	[1, 2, 5]	8	0	1	0	n/a	n/a	0.0	0	0	0	FR2	0	R1006P
1678.538	2.918	953890	PROB	2.885	n/a	n/a	-999	0	16	[1, 1, 5]	7	0	1	0	n/a	n/a	0.0	0	0	0	FR2	0	R1006P
1681.456	10.335	955384	PROB	10.311	n/a	n/a	-999	0	16	[8, 7, 5]	20	0	1	0	n/a	n/a	0.0	0	0	0	FR2	0	R1006P
1691.791	11.168	960675	PROB	11.168	n/a	n/a	-999	0	16	[9, 5, 7]	21	0	1	0	n/a	n/a	0.0	0	0	0	FR2	0	R1006P
1702.959	0.018	966393	STOP	n/a	n/a	n/a	-999	0	16	[-999, -999, -999]	n/a	0	1	0	n/a	n/a	0.0	0	0	0	FR2	0	R1006P
1702.977	1.134	966402	DISTRACT_END	n/a	n/a	n/a	-999	0	16	[0, 0, 0]	n/a	0	1	0	n/a	n/a	0.0	0	0	0	FR2	0	R1006P
1704.111	1.229	966983	REC_START	n/a	n/a	n/a	-999	0	16	[0, 0, 0]	n/a	0	1	0	n/a	n/a	0.0	0	0	0	FR2	0	R1006P
1705.34	0.531	967612	REC_WORD	1.229	n/a	PLANT	3	1	16	[0, 0, 0]	n/a	0	1	0	n/a	n/a	0.0	0	0	0	FR2	0	R1006P
1705.871	0.889	967884	REC_WORD	1.76	n/a	ROOT	4	1	16	[0, 0, 0]	n/a	0	1	0	n/a	n/a	0.0	0	0	0	FR2	0	R1006P
1706.76	2.726	968339	REC_WORD	2.649	n/a	FARM	5	1	16	[0, 0, 0]	n/a	0	1	0	n/a	n/a	0.0	0	0	0	FR2	0	R1006P
1709.486	2.308	969735	REC_WORD	5.375	n/a	CAR	1	1	16	[0, 0, 0]	n/a	0	1	0	n/a	n/a	0.0	0	0	0	FR2	0	R1006P
1711.794	1.557	970916	REC_WORD	7.683	n/a	STORE	2	1	16	[0, 0, 0]	n/a	0	1	0	n/a	n/a	0.0	0	0	0	FR2	0	R1006P
1713.351	14.859	971713	REC_WORD	9.24	n/a	GRAPE	12	1	16	[0, 0, 0]	n/a	0	1	0	n/a	n/a	0.0	0	0	0	FR2	0	R1006P
1728.21	5.912	979321	REC_WORD	24.099	n/a	VINE	-999	0	16	[0, 0, 0]	n/a	0	1	0	n/a	n/a	0.0	0	0	0	FR2	0	R1006P
1734.122	1.994	982347	REC_END	n/a	n/a	n/a	-999	0	16	[0, 0, 0]	n/a	0	1	0	n/a	n/a	0.0	0	0	0	FR2	0	R1006P
1736.116	0.0	983368	TRIAL	n/a	n/a	n/a	-999	0	17	[0, 0, 0]	n/a	0	1	0	n/a	n/a	0.0	0	0	0	FR2	0	R1006P
1736.116	10.0	983368	COUNTDOWN_START	n/a	n/a	n/a	-999	0	17	[0, 0, 0]	n/a	0	1	0	n/a	n/a	0.0	0	0	0	FR2	0	R1006P
1746.544	0.007	988707	COUNTDOWN_END	n/a	n/a	n/a	-999	0	17	[0, 0, 0]	n/a	0	1	0	n/a	n/a	0.0	0	0	0	FR2	0	R1006P
1746.551	1.6	988711	ORIENT	n/a	n/a	n/a	-999	0	17	[0, 0, 0]	n/a	0	1	0	n/a	n/a	0.0	0	0	0	FR2	0	R1006P
1748.927	4.6	989927	STIM_ON	n/a	n/a	n/a	-999	0	17	[0, 0, 0]	n/a	1	1	4600	DEC3	DEC4	1000.0	50	230	300	FR2	0	R1006P
1749.135	1.6	990034	WORD	n/a	wordpools/wordpool_EN.txt	CLOCK	1	1	17	[0, 0, 0]	n/a	1	1	4600	DEC3	DEC4	1000.0	50	230	300	FR2	0	R1006P
1751.652	1.6	991322	WORD	n/a	wordpools/wordpool_EN.txt	FENCE	2	0	17	[0, 0, 0]	n/a	1	1	4600	DEC3	DEC4	1000.0	50	230	300	FR2	0	R1006P
1754.153	1.6	992603	WORD	n/a	wordpools/wordpool_EN.txt	WEED	3	0	17	[0, 0, 0]	n/a	0	1	0	n/a	n/a	0.0	0	0	0	FR2	0	R1006P
1756.737	1.6	993926	WORD	n/a	wordpools/wordpool_EN.txt	BENCH	4	0	17	[0, 0, 0]	n/a	0	1	0	n/a	n/a	0.0	0	0	0	FR2	0	R1006P
1758.986	4.6	995077	STIM_ON	n/a	n/a	n/a	-999	0	17	[0, 0, 0]	n/a	1	1	4600	DEC3	DEC4	1000.0	50	230	300	FR2	0	R1006P
1759.187	1.6	995180	WORD	n/a	wordpools/wordpool_EN.txt	WALL	5	0	17	[0, 0, 0]	n/a	1	1	4600	DEC3	DEC4	1000.0	50	230	300	FR2	0	R1006P
1761.621	1.6	996426	WORD	n/a	wordpools/wordpool_EN.txt	BAND	6	0	17	[0, 0, 0]	n/a	1	1	4600	DEC3	DEC4	1000.0	50	230	300	FR2	0	R1006P
1764.221	1.6	997757	WORD	n/a	wordpools/wordpool_EN.txt	TOE	7	0	17	[0, 0, 0]	n/a	0	1	0	n/a	n/a	0.0	0	0	0	FR2	0	R1006P
1766.722	1.6	999038	WORD	n/a	wordpools/wordpool_EN.txt	HORN	8	0	17	[0, 0, 0]	n/a	0	1	0	n/a	n/a	0.0	0	0	0	FR2	0	R1006P
1769.138	4.6	1000275	STIM_ON	n/a	n/a	n/a	-999	0	17	[0, 0, 0]	n/a	1	1	4600	DEC3	DEC4	1000.0	50	230	300	FR2	0	R1006P
1769.356	1.6	1000386	WORD	n/a	wordpools/wordpool_EN.txt	HAWK	9	0	17	[0, 0, 0]	n/a	1	1	4600	DEC3	DEC4	1000.0	50	230	300	FR2	0	R1006P
1771.74	1.6	1001607	WORD	n/a	wordpools/wordpool_EN.txt	NOSE	10	0	17	[0, 0, 0]	n/a	1	1	4600	DEC3	DEC4	1000.0	50	230	300	FR2	0	R1006P
1774.173	1.6	1002853	WORD	n/a	wordpools/wordpool_EN.txt	CLIFF	11	0	17	[0, 0, 0]	n/a	0	1	0	n/a	n/a	0.0	0	0	0	FR2	0	R1006P
1776.774	1.6	1004184	WORD	n/a	wordpools/wordpool_EN.txt	HAND	12	0	17	[0, 0, 0]	n/a	0	1	0	n/a	n/a	0.0	0	0	0	FR2	0	R1006P
1778.391	0.001	1005012	DISTRACT_START	n/a	n/a	n/a	-999	0	17	[0, 0, 0]	n/a	0	1	0	n/a	n/a	0.0	0	0	0	FR2	0	R1006P
1778.392	0.015	1005013	START	n/a	n/a	n/a	-999	0	17	[-999, -999, -999]	n/a	0	1	0	n/a	n/a	0.0	0	0	0	FR2	0	R1006P
1778.407	4.851	1005020	PROB	4.824	n/a	n/a	-999	0	17	[9, 4, 2]	15	0	1	0	n/a	n/a	0.0	0	0	0	FR2	0	R1006P
1783.258	3.051	1007504	PROB	3.021	n/a	n/a	-999	0	17	[3, 3, 2]	8	0	1	0	n/a	n/a	0.0	0	0	0	FR2	0	R1006P
1786.309	6.018	1009066	PROB	5.994	n/a	n/a	-999	0	17	[2, 7, 7]	16	0	1	0	n/a	n/a	0.0	0	0	0	FR2	0	R1006P
1792.327	5.451	1012147	PROB	5.424	n/a	n/a	-999	0	17	[2, 9, 4]	15	0	1	0	n/a	n/a	0.0	0	0	0	FR2	0	R1006P
1797.778	7.893	1014938	PROB	7.893	n/a	n/a	-999	0	17	[8, 4, 2]	14	0	1	0	n/a	n/a	0.0	0	0	0	FR2	0	R1006P
1805.671	0.008	1018979	STOP	n/a	n/a	n/a	-999	0	17	[-999, -999, -999]	n/a	0	1	0	n/a	n/a	0.0	0	0	0	FR2	0	R1006P
1805.679	1.201	1018983	DISTRACT_END	n/a	n/a	n/a	-999	0	17	[0, 0, 0]	n/a	0	1	0	n/a	n/a	0.0	0	0	0	FR2	0	R1006P
1806.88	1.295	1019598	REC_START	n/a	n/a	n/a	-999	0	17	[0, 0, 0]	n/a	0	1	0	n/a	n/a	0.0	0	0	0	FR2	0	R1006P
1808.175	22.563	1020261	REC_WORD	1.295	n/a	CLOCK	1	1	17	[0, 0, 0]	n/a	0	1	0	n/a	n/a	0.0	0	0	0	FR2	0	R1006P
1830.738	6.158	1031812	REC_WORD_VV	23.858	n/a	<>	-999	0	17	[0, 0, 0]	n/a	0	1	0	n/a	n/a	0.0	0	0	0	FR2	0	R1006P
1836.896	2.773	1034965	REC_END	n/a	n/a	n/a	-999	0	17	[0, 0, 0]	n/a	0	1	0	n/a	n/a	0.0	0	0	0	FR2	0	R1006P
1839.669	0.0	1036385	TRIAL	n/a	n/a	n/a	-999	0	18	[0, 0, 0]	n/a	0	1	0	n/a	n/a	0.0	0	0	0	FR2	0	R1006P
1839.669	10.0	1036385	COUNTDOWN_START	n/a	n/a	n/a	-999	0	18	[0, 0, 0]	n/a	0	1	0	n/a	n/a	0.0	0	0	0	FR2	0	R1006P
1850.097	0.007	1041724	COUNTDOWN_END	n/a	n/a	n/a	-999	0	18	[0, 0, 0]	n/a	0	1	0	n/a	n/a	0.0	0	0	0	FR2	0	R1006P
1850.104	1.6	1041727	ORIENT	n/a	n/a	n/a	-999	0	18	[0, 0, 0]	n/a	0	1	0	n/a	n/a	0.0	0	0	0	FR2	0	R1006P
1852.318	4.6	1042861	STIM_ON	n/a	n/a	n/a	-999	0	18	[0, 0, 0]	n/a	1	1	4600	DEC3	DEC4	1000.0	50	230	300	FR2	0	R1006P
1852.537	1.6	1042973	WORD	n/a	wordpools/wordpool_EN.txt	MOUSE	1	0	18	[0, 0, 0]	n/a	1	1	4600	DEC3	DEC4	1000.0	50	230	300	FR2	0	R1006P
1854.922	1.6	1044194	WORD	n/a	wordpools/wordpool_EN.txt	CROW	2	0	18	[0, 0, 0]	n/a	1	1	4600	DEC3	DEC4	1000.0	50	230	300	FR2	0	R1006P
1857.305	1.6	1045414	WORD	n/a	wordpools/wordpool_EN.txt	ROAD	3	0	18	[0, 0, 0]	n/a	0	1	0	n/a	n/a	0.0	0	0	0	FR2	0	R1006P
1859.756	1.6	1046669	WORD	n/a	wordpools/wordpool_EN.txt	GRASS	4	0	18	[0, 0, 0]	n/a	0	1	0	n/a	n/a	0.0	0	0	0	FR2	0	R1006P
1861.998	4.6	1047817	STIM_ON	n/a	n/a	n/a	-999	0	18	[0, 0, 0]	n/a	1	1	4600	DEC3	DEC4	1000.0	50	230	300	FR2	0	R1006P
1862.207	1.6	1047924	WORD	n/a	wordpools/wordpool_EN.txt	DRUM	5	0	18	[0, 0, 0]	n/a	1	1	4600	DEC3	DEC4	1000.0	50	230	300	FR2	0	R1006P
1864.807	1.6	1049255	WORD	n/a	wordpools/wordpool_EN.txt	WEB	6	0	18	[0, 0, 0]	n/a	1	1	4600	DEC3	DEC4	1000.0	50	230	300	FR2	0	R1006P
1867.191	1.6	1050475	WORD	n/a	wordpools/wordpool_EN.txt	FLUTE	7	1	18	[0, 0, 0]	n/a	0	1	0	n/a	n/a	0.0	0	0	0	FR2	0	R1006P
1869.658	1.6	1051738	WORD	n/a	wordpools/wordpool_EN.txt	RAIN	8	1	18	[0, 0, 0]	n/a	0	1	0	n/a	n/a	0.0	0	0	0	FR2	0	R1006P
1872.038	4.6	1052957	STIM_ON	n/a	n/a	n/a	-999	0	18	[0, 0, 0]	n/a	1	1	4600	DEC3	DEC4	1000.0	50	230	300	FR2	0	R1006P
1872.242	1.6	1053061	WORD	n/a	wordpools/wordpool_EN.txt	CALF	9	1	18	[0, 0, 0]	n/a	1	1	4600	DEC3	DEC4	1000.0	50	230	300	FR2	0	R1006P
1874.742	1.6	1054341	WORD	n/a	wordpools/wordpool_EN.txt	PRINCE	10	1	18	[0, 0, 0]	n/a	1	1	4600	DEC3	DEC4	1000.0	50	230	300	FR2	0	R1006P
1877.343	1.6	1055673	WORD	n/a	wordpools/wordpool_EN.txt	SHELL	11	0	18	[0, 0, 0]	n/a	0	1	0	n/a	n/a	0.0	0	0	0	FR2	0	R1006P
1879.827	1.6	1056945	WORD	n/a	wordpools/wordpool_EN.txt	WOLF	12	1	18	[0, 0, 0]	n/a	0	1	0	n/a	n/a	0.0	0	0	0	FR2	0	R1006P
1881.444	0.001	1057772	DISTRACT_START	n/a	n/a	n/a	-999	0	18	[0, 0, 0]	n/a	0	1	0	n/a	n/a	0.0	0	0	0	FR2	0	R1006P
1881.445	0.015	1057773	START	n/a	n/a	n/a	-999	0	18	[-999, -999, -999]	n/a	0	1	0	n/a	n/a	0.0	0	0	0	FR2	0	R1006P
1881.46	6.151	1057781	PROB	6.123	n/a	n/a	-999	0	18	[8, 2, 1]	11	0	1	0	n/a	n/a	0.0	0	0	0	FR2	0	R1006P
1887.611	3.335	1060930	PROB	3.308	n/a	n/a	-999	0	18	[3, 5, 4]	12	0	1	0	n/a	n/a	0.0	0	0	0	FR2	0	R1006P
1890.946	6.901	1062637	PROB	6.869	n/a	n/a	-999	0	18	[3, 8, 3]	14	0	1	0	n/a	n/a	0.0	0	0	0	FR2	0	R1006P
1897.847	5.784	1066170	PROB	5.784	n/a	n/a	-999	0	18	[2, 6, 9]	17	0	1	0	n/a	n/a	0.0	0	0	0	FR2	0	R1006P
1903.631	0.017	1069132	STOP	n/a	n/a	n/a	-999	0	18	[-999, -999, -999]	n/a	0	1	0	n/a	n/a	0.0	0	0	0	FR2	0	R1006P
1903.648	1.201	1069140	DISTRACT_END	n/a	n/a	n/a	-999	0	18	[0, 0, 0]	n/a	0	1	0	n/a	n/a	0.0	0	0	0	FR2	0	R1006P
1904.849	6.589	1069755	REC_START	n/a	n/a	n/a	-999	0	18	[0, 0, 0]	n/a	0	1	0	n/a	n/a	0.0	0	0	0	FR2	0	R1006P
1911.438	7.369	1073129	REC_WORD	6.589	n/a	WOLF	12	1	18	[0, 0, 0]	n/a	0	1	0	n/a	n/a	0.0	0	0	0	FR2	0	R1006P
1918.807	2.145	1076901	REC_WORD	13.958	n/a	RAIN	8	1	18	[0, 0, 0]	n/a	0	1	0	n/a	n/a	0.0	0	0	0	FR2	0	R1006P
1920.952	1.005	1077999	REC_WORD_VV	16.103	n/a	<>	-999	0	18	[0, 0, 0]	n/a	0	1	0	n/a	n/a	0.0	0	0	0	FR2	0	R1006P
1921.957	2.376	1078514	REC_WORD	17.108	n/a	FLUTE	7	1	18	[0, 0, 0]	n/a	0	1	0	n/a	n/a	0.0	0	0	0	FR2	0	R1006P
1924.333	6.421	1079730	REC_WORD	19.484	n/a	CALF	9	1	18	[0, 0, 0]	n/a	0	1	0	n/a	n/a	0.0	0	0	0	FR2	0	R1006P
1930.754	4.106	1083018	REC_WORD	25.905	n/a	PRINCE	10	1	18	[0, 0, 0]	n/a	0	1	0	n/a	n/a	0.0	0	0	0	FR2	0	R1006P
1934.86	3.66	1085120	REC_END	n/a	n/a	n/a	-999	0	18	[0, 0, 0]	n/a	0	1	0	n/a	n/a	0.0	0	0	0	FR2	0	R1006P
1938.52	0.0	1086994	TRIAL	n/a	n/a	n/a	-999	0	19	[0, 0, 0]	n/a	0	0	0	n/a	n/a	0.0	0	0	0	FR2	0	R1006P
1938.52	10.0	1086994	COUNTDOWN_START	n/a	n/a	n/a	-999	0	19	[0, 0, 0]	n/a	0	0	0	n/a	n/a	0.0	0	0	0	FR2	0	R1006P
1948.948	0.008	1092333	COUNTDOWN_END	n/a	n/a	n/a	-999	0	19	[0, 0, 0]	n/a	0	0	0	n/a	n/a	0.0	0	0	0	FR2	0	R1006P
1948.956	1.6	1092337	ORIENT	n/a	n/a	n/a	-999	0	19	[0, 0, 0]	n/a	0	0	0	n/a	n/a	0.0	0	0	0	FR2	0	R1006P
1951.357	1.6	1093566	WORD	n/a	wordpools/wordpool_EN.txt	FOX	1	1	19	[0, 0, 0]	n/a	0	0	0	n/a	n/a	0.0	0	0	0	FR2	0	R1006P
1953.757	1.6	1094795	WORD	n/a	wordpools/wordpool_EN.txt	TENT	2	1	19	[0, 0, 0]	n/a	0	0	0	n/a	n/a	0.0	0	0	0	FR2	0	R1006P
1956.174	1.6	1096032	WORD	n/a	wordpools/wordpool_EN.txt	PIE	3	1	19	[0, 0, 0]	n/a	0	0	0	n/a	n/a	0.0	0	0	0	FR2	0	R1006P
1958.608	1.6	1097278	WORD	n/a	wordpools/wordpool_EN.txt	CAVE	4	0	19	[0, 0, 0]	n/a	0	0	0	n/a	n/a	0.0	0	0	0	FR2	0	R1006P
1961.025	1.6	1098516	WORD	n/a	wordpools/wordpool_EN.txt	SOUP	5	0	19	[0, 0, 0]	n/a	0	0	0	n/a	n/a	0.0	0	0	0	FR2	0	R1006P
1963.493	1.6	1099779	WORD	n/a	wordpools/wordpool_EN.txt	STICK	6	0	19	[0, 0, 0]	n/a	0	0	0	n/a	n/a	0.0	0	0	0	FR2	0	R1006P
1965.909	1.6	1101016	WORD	n/a	wordpools/wordpool_EN.txt	MOOSE	7	1	19	[0, 0, 0]	n/a	0	0	0	n/a	n/a	0.0	0	0	0	FR2	0	R1006P
1968.493	1.6	1102339	WORD	n/a	wordpools/wordpool_EN.txt	SKUNK	8	1	19	[0, 0, 0]	n/a	0	0	0	n/a	n/a	0.0	0	0	0	FR2	0	R1006P
1970.961	1.6	1103603	WORD	n/a	wordpools/wordpool_EN.txt	SEAL	9	0	19	[0, 0, 0]	n/a	0	0	0	n/a	n/a	0.0	0	0	0	FR2	0	R1006P
1973.526	1.6	1104916	WORD	n/a	wordpools/wordpool_EN.txt	BREAD	10	0	19	[0, 0, 0]	n/a	0	0	0	n/a	n/a	0.0	0	0	0	FR2	0	R1006P
1976.045	1.6	1106206	WORD	n/a	wordpools/wordpool_EN.txt	GATE	11	0	19	[0, 0, 0]	n/a	0	0	0	n/a	n/a	0.0	0	0	0	FR2	0	R1006P
1978.445	1.6	1107434	WORD	n/a	wordpools/wordpool_EN.txt	TAIL	12	0	19	[0, 0, 0]	n/a	0	0	0	n/a	n/a	0.0	0	0	0	FR2	0	R1006P
1980.062	0.001	1108262	DISTRACT_START	n/a	n/a	n/a	-999	0	19	[0, 0, 0]	n/a	0	0	0	n/a	n/a	0.0	0	0	0	FR2	0	R1006P
1980.063	0.016	1108263	START	n/a	n/a	n/a	-999	0	19	[-999, -999, -999]	n/a	0	0	0	n/a	n/a	0.0	0	0	0	FR2	0	R1006P
1980.079	11.935	1108271	PROB	11.912	n/a	n/a	-999	0	19	[7, 8, 8]	23	0	0	0	n/a	n/a	0.0	0	0	0	FR2	0	R1006P
1992.014	2.651	1114381	PROB	2.625	n/a	n/a	-999	0	19	[4, 2, 2]	8	0	0	0	n/a	n/a	0.0	0	0	0	FR2	0	R1006P
1994.665	5.542	1115739	PROB	5.542	n/a	n/a	-999	0	19	[3, 1, 8]	12	0	0	0	n/a	n/a	0.0	0	0	0	FR2	0	R1006P
2000.207	0.009	1118576	STOP	n/a	n/a	n/a	-999	0	19	[-999, -999, -999]	n/a	0	0	0	n/a	n/a	0.0	0	0	0	FR2	0	R1006P
2000.216	1.067	1118580	DISTRACT_END	n/a	n/a	n/a	-999	0	19	[0, 0, 0]	n/a	0	0	0	n/a	n/a	0.0	0	0	0	FR2	0	R1006P
2001.283	0.81	1119127	REC_START	n/a	n/a	n/a	-999	0	19	[0, 0, 0]	n/a	0	0	0	n/a	n/a	0.0	0	0	0	FR2	0	R1006P
2002.093	0.663	1119541	REC_WORD	0.81	n/a	FOX	1	1	19	[0, 0, 0]	n/a	0	0	0	n/a	n/a	0.0	0	0	0	FR2	0	R1006P
2002.756	0.768	1119881	REC_WORD	1.473	n/a	TENT	2	1	19	[0, 0, 0]	n/a	0	0	0	n/a	n/a	0.0	0	0	0	FR2	0	R1006P
2003.524	0.549	1120274	REC_WORD	2.241	n/a	PIE	3	1	19	[0, 0, 0]	n/a	0	0	0	n/a	n/a	0.0	0	0	0	FR2	0	R1006P
2004.073	3.02	1120555	REC_WORD	2.79	n/a	SKUNK	8	1	19	[0, 0, 0]	n/a	0	0	0	n/a	n/a	0.0	0	0	0	FR2	0	R1006P
2007.093	0.881	1122101	REC_WORD_VV	5.81	n/a	<>	-999	0	19	[0, 0, 0]	n/a	0	0	0	n/a	n/a	0.0	0	0	0	FR2	0	R1006P
2007.974	11.326	1122552	REC_WORD	6.691	n/a	MOOSE	7	1	19	[0, 0, 0]	n/a	0	0	0	n/a	n/a	0.0	0	0	0	FR2	0	R1006P
2019.3	10.482	1128351	REC_WORD_VV	18.017	n/a	<>	-999	0	19	[0, 0, 0]	n/a	0	0	0	n/a	n/a	0.0	0	0	0	FR2	0	R1006P
2029.782	1.513	1133717	REC_WORD_VV	28.499	n/a	<>	-999	0	19	[0, 0, 0]	n/a	0	0	0	n/a	n/a	0.0	0	0	0	FR2	0	R1006P
2031.295	2.226	1134492	REC_END	n/a	n/a	n/a	-999	0	19	[0, 0, 0]	n/a	0	0	0	n/a	n/a	0.0	0	0	0	FR2	0	R1006P
2033.521	10.0	1135632	COUNTDOWN_START	n/a	n/a	n/a	-999	0	20	[0, 0, 0]	n/a	0	1	0	n/a	n/a	0.0	0	0	0	FR2	0	R1006P
2033.522	10.427	1135632	TRIAL	n/a	n/a	n/a	-999	0	20	[0, 0, 0]	n/a	0	1	0	n/a	n/a	0.0	0	0	0	FR2	0	R1006P
2043.949	0.009	1140971	COUNTDOWN_END	n/a	n/a	n/a	-999	0	20	[0, 0, 0]	n/a	0	1	0	n/a	n/a	0.0	0	0	0	FR2	0	R1006P
2043.958	1.6	1140975	ORIENT	n/a	n/a	n/a	-999	0	20	[0, 0, 0]	n/a	0	1	0	n/a	n/a	0.0	0	0	0	FR2	0	R1006P
2046.372	4.6	1142211	STIM_ON	n/a	n/a	n/a	-999	0	20	[0, 0, 0]	n/a	1	1	4600	DEC3	DEC4	1000.0	50	230	300	FR2	0	R1006P
2046.574	1.6	1142315	WORD	n/a	wordpools/wordpool_EN.txt	MOON	1	0	20	[0, 0, 0]	n/a	1	1	4600	DEC3	DEC4	1000.0	50	230	300	FR2	0	R1006P
2049.058	1.6	1143586	WORD	n/a	wordpools/wordpool_EN.txt	BEE	2	0	20	[0, 0, 0]	n/a	1	1	4600	DEC3	DEC4	1000.0	50	230	300	FR2	0	R1006P
2051.525	1.6	1144849	WORD	n/a	wordpools/wordpool_EN.txt	SHIP	3	1	20	[0, 0, 0]	n/a	0	1	0	n/a	n/a	0.0	0	0	0	FR2	0	R1006P
2053.909	1.6	1146070	WORD	n/a	wordpools/wordpool_EN.txt	SAIL	4	1	20	[0, 0, 0]	n/a	0	1	0	n/a	n/a	0.0	0	0	0	FR2	0	R1006P
2056.131	4.6	1147207	STIM_ON	n/a	n/a	n/a	-999	0	20	[0, 0, 0]	n/a	1	1	4600	DEC3	DEC4	1000.0	50	230	300	FR2	0	R1006P
2056.343	1.6	1147316	WORD	n/a	wordpools/wordpool_EN.txt	POLE	5	1	20	[0, 0, 0]	n/a	1	1	4600	DEC3	DEC4	1000.0	50	230	300	FR2	0	R1006P
2058.927	1.6	1148639	WORD	n/a	wordpools/wordpool_EN.txt	EGG	6	0	20	[0, 0, 0]	n/a	1	1	4600	DEC3	DEC4	1000.0	50	230	300	FR2	0	R1006P
2061.494	1.6	1149953	WORD	n/a	wordpools/wordpool_EN.txt	FORT	7	0	20	[0, 0, 0]	n/a	0	1	0	n/a	n/a	0.0	0	0	0	FR2	0	R1006P
2063.961	1.6	1151216	WORD	n/a	wordpools/wordpool_EN.txt	ZOO	8	0	20	[0, 0, 0]	n/a	0	1	0	n/a	n/a	0.0	0	0	0	FR2	0	R1006P
2066.356	4.6	1152442	STIM_ON	n/a	n/a	n/a	-999	0	20	[0, 0, 0]	n/a	1	1	4600	DEC3	DEC4	1000.0	50	230	300	FR2	0	R1006P
2066.562	1.6	1152548	WORD	n/a	wordpools/wordpool_EN.txt	ROCK	9	1	20	[0, 0, 0]	n/a	1	1	4600	DEC3	DEC4	1000.0	50	230	300	FR2	0	R1006P
2069.079	1.6	1153836	WORD	n/a	wordpools/wordpool_EN.txt	CAT	10	0	20	[0, 0, 0]	n/a	1	1	4600	DEC3	DEC4	1000.0	50	230	300	FR2	0	R1006P
2071.629	1.6	1155142	WORD	n/a	wordpools/wordpool_EN.txt	SHARK	11	1	20	[0, 0, 0]	n/a	0	1	0	n/a	n/a	0.0	0	0	0	FR2	0	R1006P
2074.147	1.6	1156431	WORD	n/a	wordpools/wordpool_EN.txt	FILM	12	1	20	[0, 0, 0]	n/a	0	1	0	n/a	n/a	0.0	0	0	0	FR2	0	R1006P
2075.764	0.0	1157259	DISTRACT_START	n/a	n/a	n/a	-999	0	20	[0, 0, 0]	n/a	0	1	0	n/a	n/a	0.0	0	0	0	FR2	0	R1006P
2075.764	0.016	1157259	START	n/a	n/a	n/a	-999	0	20	[-999, -999, -999]	n/a	0	1	0	n/a	n/a	0.0	0	0	0	FR2	0	R1006P
2075.78	10.285	1157267	PROB	10.251	n/a	n/a	-999	0	20	[6, 7, 9]	23	0	1	0	n/a	n/a	0.0	0	0	0	FR2	0	R1006P
2086.065	9.782	1162533	PROB	9.782	n/a	n/a	-999	0	20	[9, 9, 5]	23	0	1	0	n/a	n/a	0.0	0	0	0	FR2	0	R1006P
2095.847	0.003	1167541	STOP	n/a	n/a	n/a	-999	0	20	[-999, -999, -999]	n/a	0	1	0	n/a	n/a	0.0	0	0	0	FR2	0	R1006P
2095.85	1.068	1167543	DISTRACT_END	n/a	n/a	n/a	-999	0	20	[0, 0, 0]	n/a	0	1	0	n/a	n/a	0.0	0	0	0	FR2	0	R1006P
2096.918	2.543	1168089	REC_START	n/a	n/a	n/a	-999	0	20	[0, 0, 0]	n/a	0	1	0	n/a	n/a	0.0	0	0	0	FR2	0	R1006P
2099.461	1.428	1169391	REC_WORD_VV	2.543	n/a	<>	-999	0	20	[0, 0, 0]	n/a	0	1	0	n/a	n/a	0.0	0	0	0	FR2	0	R1006P
2100.889	3.194	1170122	REC_WORD_VV	3.971	n/a	<>	-999	0	20	[0, 0, 0]	n/a	0	1	0	n/a	n/a	0.0	0	0	0	FR2	0	R1006P
2104.083	0.927	1171758	REC_WORD	7.165	n/a	SHIP	3	1	20	[0, 0, 0]	n/a	0	1	0	n/a	n/a	0.0	0	0	0	FR2	0	R1006P
2105.01	1.04	1172232	REC_WORD	8.092	n/a	SAIL	4	1	20	[0, 0, 0]	n/a	0	1	0	n/a	n/a	0.0	0	0	0	FR2	0	R1006P
2106.05	1.452	1172765	REC_WORD	9.132	n/a	POLE	5	1	20	[0, 0, 0]	n/a	0	1	0	n/a	n/a	0.0	0	0	0	FR2	0	R1006P
2107.502	2.188	1173508	REC_WORD	10.584	n/a	SHARK	11	1	20	[0, 0, 0]	n/a	0	1	0	n/a	n/a	0.0	0	0	0	FR2	0	R1006P
2109.69	3.37	1174628	REC_WORD	12.772	n/a	ROCK	9	1	20	[0, 0, 0]	n/a	0	1	0	n/a	n/a	0.0	0	0	0	FR2	0	R1006P
2113.06	0.979	1176354	REC_WORD_VV	16.142	n/a	<>	-999	0	20	[0, 0, 0]	n/a	0	1	0	n/a	n/a	0.0	0	0	0	FR2	0	R1006P
2114.039	12.891	1176855	REC_WORD	17.121	n/a	FILM	12	1	20	[0, 0, 0]	n/a	0	1	0	n/a	n/a	0.0	0	0	0	FR2	0	R1006P
2126.93	2.677	1183455	REC_END	n/a	n/a	n/a	-999	0	20	[0, 0, 0]	n/a	0	1	0	n/a	n/a	0.0	0	0	0	FR2	0	R1006P
2129.607	0.0	1184825	TRIAL	n/a	n/a	n/a	-999	0	21	[0, 0, 0]	n/a	0	0	0	n/a	n/a	0.0	0	0	0	FR2	0	R1006P
2129.607	10.0	1184825	COUNTDOWN_START	n/a	n/a	n/a	-999	0	21	[0, 0, 0]	n/a	0	0	0	n/a	n/a	0.0	0	0	0	FR2	0	R1006P
2140.035	0.007	1190164	COUNTDOWN_END	n/a	n/a	n/a	-999	0	21	[0, 0, 0]	n/a	0	0	0	n/a	n/a	0.0	0	0	0	FR2	0	R1006P
2140.042	1.6	1190168	ORIENT	n/a	n/a	n/a	-999	0	21	[0, 0, 0]	n/a	0	0	0	n/a	n/a	0.0	0	0	0	FR2	0	R1006P
2142.525	1.6	1191439	WORD	n/a	wordpools/wordpool_EN.txt	AXE	1	1	21	[0, 0, 0]	n/a	0	0	0	n/a	n/a	0.0	0	0	0	FR2	0	R1006P
2144.893	1.6	1192651	WORD	n/a	wordpools/wordpool_EN.txt	OWL	2	0	21	[0, 0, 0]	n/a	0	0	0	n/a	n/a	0.0	0	0	0	FR2	0	R1006P
2147.31	1.6	1193889	WORD	n/a	wordpools/wordpool_EN.txt	GOAT	3	1	21	[0, 0, 0]	n/a	0	0	0	n/a	n/a	0.0	0	0	0	FR2	0	R1006P
2149.744	1.6	1195135	WORD	n/a	wordpools/wordpool_EN.txt	EAR	4	0	21	[0, 0, 0]	n/a	0	0	0	n/a	n/a	0.0	0	0	0	FR2	0	R1006P
2152.145	1.6	1196364	WORD	n/a	wordpools/wordpool_EN.txt	RAT	5	0	21	[0, 0, 0]	n/a	0	0	0	n/a	n/a	0.0	0	0	0	FR2	0	R1006P
2154.579	1.6	1197610	WORD	n/a	wordpools/wordpool_EN.txt	FORK	6	0	21	[0, 0, 0]	n/a	0	0	0	n/a	n/a	0.0	0	0	0	FR2	0	R1006P
2157.162	1.6	1198933	WORD	n/a	wordpools/wordpool_EN.txt	ROPE	7	0	21	[0, 0, 0]	n/a	0	0	0	n/a	n/a	0.0	0	0	0	FR2	0	R1006P
2159.763	1.6	1200264	WORD	n/a	wordpools/wordpool_EN.txt	PIPE	8	0	21	[0, 0, 0]	n/a	0	0	0	n/a	n/a	0.0	0	0	0	FR2	0	R1006P
2162.147	1.6	1201485	WORD	n/a	wordpools/wordpool_EN.txt	CRANE	9	0	21	[0, 0, 0]	n/a	0	0	0	n/a	n/a	0.0	0	0	0	FR2	0	R1006P
2164.58	1.6	1202730	WORD	n/a	wordpools/wordpool_EN.txt	MOUTH	10	0	21	[0, 0, 0]	n/a	0	0	0	n/a	n/a	0.0	0	0	0	FR2	0	R1006P
2166.997	1.6	1203968	WORD	n/a	wordpools/wordpool_EN.txt	WAND	11	0	21	[0, 0, 0]	n/a	0	0	0	n/a	n/a	0.0	0	0	0	FR2	0	R1006P
2169.548	1.6	1205274	WORD	n/a	wordpools/wordpool_EN.txt	THUMB	12	0	21	[0, 0, 0]	n/a	0	0	0	n/a	n/a	0.0	0	0	0	FR2	0	R1006P
2171.165	0.001	1206102	DISTRACT_START	n/a	n/a	n/a	-999	0	21	[0, 0, 0]	n/a	0	0	0	n/a	n/a	0.0	0	0	0	FR2	0	R1006P
2171.166	0.016	1206102	START	n/a	n/a	n/a	-999	0	21	[-999, -999, -999]	n/a	0	0	0	n/a	n/a	0.0	0	0	0	FR2	0	R1006P
2171.182	4.349	1206110	PROB	4.32	n/a	n/a	-999	0	21	[3, 1, 5]	9	0	0	0	n/a	n/a	0.0	0	0	0	FR2	0	R1006P
2175.531	9.803	1208337	PROB	9.78	n/a	n/a	-999	0	21	[3, 7, 6]	16	0	0	0	n/a	n/a	0.0	0	0	0	FR2	0	R1006P
2185.334	14.025	1213356	PROB	14.025	n/a	n/a	-999	0	21	[5, 2, 4]	11	0	0	0	n/a	n/a	0.0	0	0	0	FR2	0	R1006P
2199.359	0.011	1220536	STOP	n/a	n/a	n/a	-999	0	21	[-999, -999, -999]	n/a	0	0	0	n/a	n/a	0.0	0	0	0	FR2	0	R1006P
2199.37	1.034	1220542	DISTRACT_END	n/a	n/a	n/a	-999	0	21	[0, 0, 0]	n/a	0	0	0	n/a	n/a	0.0	0	0	0	FR2	0	R1006P
2200.404	1.773	1221071	REC_START	n/a	n/a	n/a	-999	0	21	[0, 0, 0]	n/a	0	0	0	n/a	n/a	0.0	0	0	0	FR2	0	R1006P
2202.177	1.141	1221979	REC_WORD	1.773	n/a	AXE	1	1	21	[0, 0, 0]	n/a	0	0	0	n/a	n/a	0.0	0	0	0	FR2	0	R1006P
2203.318	4.393	1222563	REC_WORD	2.914	n/a	MOOSE	-999	0	21	[0, 0, 0]	n/a	0	0	0	n/a	n/a	0.0	0	0	0	FR2	0	R1006P
2207.711	5.58	1224812	REC_WORD	7.307	n/a	MOUSE	-999	0	21	[0, 0, 0]	n/a	0	0	0	n/a	n/a	0.0	0	0	0	FR2	0	R1006P
2213.291	2.889	1227669	REC_WORD	12.887	n/a	SKUNK	-999	0	21	[0, 0, 0]	n/a	0	0	0	n/a	n/a	0.0	0	0	0	FR2	0	R1006P
2216.18	3.839	1229148	REC_WORD	15.776	n/a	GOAT	3	1	21	[0, 0, 0]	n/a	0	0	0	n/a	n/a	0.0	0	0	0	FR2	0	R1006P
2220.019	10.4	1231114	REC_WORD_VV	19.615	n/a	<>	-999	0	21	[0, 0, 0]	n/a	0	0	0	n/a	n/a	0.0	0	0	0	FR2	0	R1006P
2230.419	2.191	1236438	REC_END	n/a	n/a	n/a	-999	0	21	[0, 0, 0]	n/a	0	0	0	n/a	n/a	0.0	0	0	0	FR2	0	R1006P
2232.61	0.0	1237560	TRIAL	n/a	n/a	n/a	-999	0	22	[0, 0, 0]	n/a	0	1	0	n/a	n/a	0.0	0	0	0	FR2	0	R1006P
2232.61	10.0	1237560	COUNTDOWN_START	n/a	n/a	n/a	-999	0	22	[0, 0, 0]	n/a	0	1	0	n/a	n/a	0.0	0	0	0	FR2	0	R1006P
2243.038	0.007	1242899	COUNTDOWN_END	n/a	n/a	n/a	-999	0	22	[0, 0, 0]	n/a	0	1	0	n/a	n/a	0.0	0	0	0	FR2	0	R1006P
2243.045	1.6	1242902	ORIENT	n/a	n/a	n/a	-999	0	22	[0, 0, 0]	n/a	0	1	0	n/a	n/a	0.0	0	0	0	FR2	0	R1006P
2245.407	4.6	1244112	STIM_ON	n/a	n/a	n/a	-999	0	22	[0, 0, 0]	n/a	1	1	4600	DEC3	DEC4	1000.0	50	230	300	FR2	0	R1006P
2245.612	1.6	1244217	WORD	n/a	wordpools/wordpool_EN.txt	NAIL	1	0	22	[0, 0, 0]	n/a	1	1	4600	DEC3	DEC4	1000.0	50	230	300	FR2	0	R1006P
2248.129	1.6	1245505	WORD	n/a	wordpools/wordpool_EN.txt	JAIL	2	0	22	[0, 0, 0]	n/a	1	1	4600	DEC3	DEC4	1000.0	50	230	300	FR2	0	R1006P
2250.597	1.6	1246769	WORD	n/a	wordpools/wordpool_EN.txt	HOSE	3	0	22	[0, 0, 0]	n/a	0	1	0	n/a	n/a	0.0	0	0	0	FR2	0	R1006P
2253.164	1.6	1248083	WORD	n/a	wordpools/wordpool_EN.txt	SKI	4	0	22	[0, 0, 0]	n/a	0	1	0	n/a	n/a	0.0	0	0	0	FR2	0	R1006P
2255.566	4.6	1249313	STIM_ON	n/a	n/a	n/a	-999	0	22	[0, 0, 0]	n/a	1	1	4600	DEC3	DEC4	1000.0	50	230	300	FR2	0	R1006P
2255.781	1.6	1249423	WORD	n/a	wordpools/wordpool_EN.txt	DOCK	5	0	22	[0, 0, 0]	n/a	1	1	4600	DEC3	DEC4	1000.0	50	230	300	FR2	0	R1006P
2258.231	1.6	1250677	WORD	n/a	wordpools/wordpool_EN.txt	BOMB	6	0	22	[0, 0, 0]	n/a	1	1	4600	DEC3	DEC4	1000.0	50	230	300	FR2	0	R1006P
2260.715	1.6	1251949	WORD	n/a	wordpools/wordpool_EN.txt	HOOF	7	0	22	[0, 0, 0]	n/a	0	1	0	n/a	n/a	0.0	0	0	0	FR2	0	R1006P
2263.299	1.6	1253272	WORD	n/a	wordpools/wordpool_EN.txt	KEY	8	0	22	[0, 0, 0]	n/a	0	1	0	n/a	n/a	0.0	0	0	0	FR2	0	R1006P
2265.552	4.6	1254425	STIM_ON	n/a	n/a	n/a	-999	0	22	[0, 0, 0]	n/a	1	1	4600	DEC3	DEC4	1000.0	50	230	300	FR2	0	R1006P
2265.766	1.6	1254535	WORD	n/a	wordpools/wordpool_EN.txt	LAND	9	0	22	[0, 0, 0]	n/a	1	1	4600	DEC3	DEC4	1000.0	50	230	300	FR2	0	R1006P
2268.383	1.6	1255875	WORD	n/a	wordpools/wordpool_EN.txt	BOOT	10	0	22	[0, 0, 0]	n/a	1	1	4600	DEC3	DEC4	1000.0	50	230	300	FR2	0	R1006P
2270.85	1.6	1257138	WORD	n/a	wordpools/wordpool_EN.txt	LAKE	11	0	22	[0, 0, 0]	n/a	0	1	0	n/a	n/a	0.0	0	0	0	FR2	0	R1006P
2273.267	1.6	1258375	WORD	n/a	wordpools/wordpool_EN.txt	BOOK	12	0	22	[0, 0, 0]	n/a	0	1	0	n/a	n/a	0.0	0	0	0	FR2	0	R1006P
2274.885	0.0	1259204	DISTRACT_START	n/a	n/a	n/a	-999	0	22	[0, 0, 0]	n/a	0	1	0	n/a	n/a	0.0	0	0	0	FR2	0	R1006P
2274.885	0.016	1259204	START	n/a	n/a	n/a	-999	0	22	[-999, -999, -999]	n/a	0	1	0	n/a	n/a	0.0	0	0	0	FR2	0	R1006P
2274.901	5.901	1259212	PROB	5.866	n/a	n/a	-999	0	22	[3, 9, 2]	14	0	1	0	n/a	n/a	0.0	0	0	0	FR2	0	R1006P
2280.802	3.884	1262233	PROB	3.853	n/a	n/a	-999	0	22	[3, 1, 9]	13	0	1	0	n/a	n/a	0.0	0	0	0	FR2	0	R1006P
2284.686	2.968	1264221	PROB	2.945	n/a	n/a	-999	0	22	[2, 4, 4]	10	0	1	0	n/a	n/a	0.0	0	0	0	FR2	0	R1006P
2287.654	3.866	1265741	PROB	3.833	n/a	n/a	-999	0	22	[2, 3, 2]	7	0	1	0	n/a	n/a	0.0	0	0	0	FR2	0	R1006P
2291.52	20.807	1267720	PROB	20.807	n/a	n/a	-999	0	22	[6, 6, 7]	19	0	1	0	n/a	n/a	0.0	0	0	0	FR2	0	R1006P
2312.327	0.015	1278373	STOP	n/a	n/a	n/a	-999	0	22	[-999, -999, -999]	n/a	0	1	0	n/a	n/a	0.0	0	0	0	FR2	0	R1006P
2312.342	1.183	1278381	DISTRACT_END	n/a	n/a	n/a	-999	0	22	[0, 0, 0]	n/a	0	1	0	n/a	n/a	0.0	0	0	0	FR2	0	R1006P
2313.525	9.412	1278986	REC_START	n/a	n/a	n/a	-999	0	22	[0, 0, 0]	n/a	0	1	0	n/a	n/a	0.0	0	0	0	FR2	0	R1006P
2322.937	19.733	1283805	REC_WORD_VV	9.412	n/a	<>	-999	0	22	[0, 0, 0]	n/a	0	1	0	n/a	n/a	0.0	0	0	0	FR2	0	R1006P
2342.67	0.866	1293908	REC_WORD_VV	29.145	n/a	<>	-999	0	22	[0, 0, 0]	n/a	0	1	0	n/a	n/a	0.0	0	0	0	FR2	0	R1006P
2343.536	1.378	1294351	REC_END	n/a	n/a	n/a	-999	0	22	[0, 0, 0]	n/a	0	1	0	n/a	n/a	0.0	0	0	0	FR2	0	R1006P
2344.914	0.0	1295057	TRIAL	n/a	n/a	n/a	-999	0	23	[0, 0, 0]	n/a	0	1	0	n/a	n/a	0.0	0	0	0	FR2	0	R1006P
2344.914	10.0	1295057	COUNTDOWN_START	n/a	n/a	n/a	-999	0	23	[0, 0, 0]	n/a	0	1	0	n/a	n/a	0.0	0	0	0	FR2	0	R1006P
2355.342	0.008	1300395	COUNTDOWN_END	n/a	n/a	n/a	-999	0	23	[0, 0, 0]	n/a	0	1	0	n/a	n/a	0.0	0	0	0	FR2	0	R1006P
2355.35	1.6	1300400	ORIENT	n/a	n/a	n/a	-999	0	23	[0, 0, 0]	n/a	0	1	0	n/a	n/a	0.0	0	0	0	FR2	0	R1006P
2357.568	4.6	1301535	STIM_ON	n/a	n/a	n/a	-999	0	23	[0, 0, 0]	n/a	1	1	4600	DEC3	DEC4	1000.0	50	230	300	FR2	0	R1006P
2357.783	1.6	1301645	WORD	n/a	wordpools/wordpool_EN.txt	ARM	1	1	23	[0, 0, 0]	n/a	1	1	4600	DEC3	DEC4	1000.0	50	230	300	FR2	0	R1006P
2360.167	1.6	1302866	WORD	n/a	wordpools/wordpool_EN.txt	VASE	2	0	23	[0, 0, 0]	n/a	1	1	4600	DEC3	DEC4	1000.0	50	230	300	FR2	0	R1006P
2362.684	1.6	1304154	WORD	n/a	wordpools/wordpool_EN.txt	TRAY	3	0	23	[0, 0, 0]	n/a	0	1	0	n/a	n/a	0.0	0	0	0	FR2	0	R1006P
2365.268	1.6	1305477	WORD	n/a	wordpools/wordpool_EN.txt	BAG	4	0	23	[0, 0, 0]	n/a	0	1	0	n/a	n/a	0.0	0	0	0	FR2	0	R1006P
2367.514	4.6	1306627	STIM_ON	n/a	n/a	n/a	-999	0	23	[0, 0, 0]	n/a	1	1	4600	DEC3	DEC4	1000.0	50	230	300	FR2	0	R1006P
2367.719	1.6	1306732	WORD	n/a	wordpools/wordpool_EN.txt	DOLL	5	0	23	[0, 0, 0]	n/a	1	1	4600	DEC3	DEC4	1000.0	50	230	300	FR2	0	R1006P
2370.136	1.6	1307970	WORD	n/a	wordpools/wordpool_EN.txt	BALL	6	0	23	[0, 0, 0]	n/a	1	1	4600	DEC3	DEC4	1000.0	50	230	300	FR2	0	R1006P
2372.553	1.6	1309207	WORD	n/a	wordpools/wordpool_EN.txt	SOCK	7	0	23	[0, 0, 0]	n/a	0	1	0	n/a	n/a	0.0	0	0	0	FR2	0	R1006P
2374.987	1.6	1310453	WORD	n/a	wordpools/wordpool_EN.txt	PEAR	8	0	23	[0, 0, 0]	n/a	0	1	0	n/a	n/a	0.0	0	0	0	FR2	0	R1006P
2377.173	4.6	1311572	STIM_ON	n/a	n/a	n/a	-999	0	23	[0, 0, 0]	n/a	1	1	4600	DEC3	DEC4	1000.0	50	230	300	FR2	0	R1006P
2377.387	1.6	1311682	WORD	n/a	wordpools/wordpool_EN.txt	FOOT	9	1	23	[0, 0, 0]	n/a	1	1	4600	DEC3	DEC4	1000.0	50	230	300	FR2	0	R1006P
2379.788	1.6	1312911	WORD	n/a	wordpools/wordpool_EN.txt	CANE	10	0	23	[0, 0, 0]	n/a	1	1	4600	DEC3	DEC4	1000.0	50	230	300	FR2	0	R1006P
2382.371	1.6	1314234	WORD	n/a	wordpools/wordpool_EN.txt	STRING	11	1	23	[0, 0, 0]	n/a	0	1	0	n/a	n/a	0.0	0	0	0	FR2	0	R1006P
2384.789	1.6	1315472	WORD	n/a	wordpools/wordpool_EN.txt	OAR	12	1	23	[0, 0, 0]	n/a	0	1	0	n/a	n/a	0.0	0	0	0	FR2	0	R1006P
2386.406	0.0	1316299	DISTRACT_START	n/a	n/a	n/a	-999	0	23	[0, 0, 0]	n/a	0	1	0	n/a	n/a	0.0	0	0	0	FR2	0	R1006P
2386.406	0.016	1316299	START	n/a	n/a	n/a	-999	0	23	[-999, -999, -999]	n/a	0	1	0	n/a	n/a	0.0	0	0	0	FR2	0	R1006P
2386.422	13.503	1316308	PROB	13.473	n/a	n/a	-999	0	23	[7, 1, 6]	24	0	1	0	n/a	n/a	0.0	0	0	0	FR2	0	R1006P
2399.925	9.242	1323221	PROB	9.242	n/a	n/a	-999	0	23	[4, 5, 8]	17	0	1	0	n/a	n/a	0.0	0	0	0	FR2	0	R1006P
2409.167	0.01	1327952	STOP	n/a	n/a	n/a	-999	0	23	[-999, -999, -999]	n/a	0	1	0	n/a	n/a	0.0	0	0	0	FR2	0	R1006P
2409.177	1.201	1327958	DISTRACT_END	n/a	n/a	n/a	-999	0	23	[0, 0, 0]	n/a	0	1	0	n/a	n/a	0.0	0	0	0	FR2	0	R1006P
2410.378	1.505	1328572	REC_START	n/a	n/a	n/a	-999	0	23	[0, 0, 0]	n/a	0	1	0	n/a	n/a	0.0	0	0	0	FR2	0	R1006P
2411.883	0.572	1329343	REC_WORD	1.505	n/a	OAR	12	1	23	[0, 0, 0]	n/a	0	1	0	n/a	n/a	0.0	0	0	0	FR2	0	R1006P
2412.455	0.67	1329636	REC_WORD	2.077	n/a	ARM	1	1	23	[0, 0, 0]	n/a	0	1	0	n/a	n/a	0.0	0	0	0	FR2	0	R1006P
2413.125	8.005	1329979	REC_WORD	2.747	n/a	STRING	11	1	23	[0, 0, 0]	n/a	0	1	0	n/a	n/a	0.0	0	0	0	FR2	0	R1006P
2421.13	19.259	1334077	REC_WORD	10.752	n/a	FOOT	9	1	23	[0, 0, 0]	n/a	0	1	0	n/a	n/a	0.0	0	0	0	FR2	0	R1006P
2440.389	2.26	1343937	REC_END	n/a	n/a	n/a	-999	0	23	[0, 0, 0]	n/a	0	1	0	n/a	n/a	0.0	0	0	0	FR2	0	R1006P
2442.649	10.0	1345094	COUNTDOWN_START	n/a	n/a	n/a	-999	0	24	[0, 0, 0]	n/a	0	1	0	n/a	n/a	0.0	0	0	0	FR2	0	R1006P
2442.65	10.427	1345095	TRIAL	n/a	n/a	n/a	-999	0	24	[0, 0, 0]	n/a	0	1	0	n/a	n/a	0.0	0	0	0	FR2	0	R1006P
2453.077	0.008	1350433	COUNTDOWN_END	n/a	n/a	n/a	-999	0	24	[0, 0, 0]	n/a	0	1	0	n/a	n/a	0.0	0	0	0	FR2	0	R1006P
2453.085	1.6	1350437	ORIENT	n/a	n/a	n/a	-999	0	24	[0, 0, 0]	n/a	0	1	0	n/a	n/a	0.0	0	0	0	FR2	0	R1006P
2455.386	4.6	1351615	STIM_ON	n/a	n/a	n/a	-999	0	24	[0, 0, 0]	n/a	1	1	4600	DEC3	DEC4	1000.0	50	230	300	FR2	0	R1006P
2455.602	1.6	1351726	WORD	n/a	wordpools/wordpool_EN.txt	MAP	1	0	24	[0, 0, 0]	n/a	1	1	4600	DEC3	DEC4	1000.0	50	230	300	FR2	0	R1006P
2458.152	1.6	1353031	WORD	n/a	wordpools/wordpool_EN.txt	CORN	2	0	24	[0, 0, 0]	n/a	1	1	4600	DEC3	DEC4	1000.0	50	230	300	FR2	0	R1006P
2460.703	1.6	1354337	WORD	n/a	wordpools/wordpool_EN.txt	ROSE	3	0	24	[0, 0, 0]	n/a	0	1	0	n/a	n/a	0.0	0	0	0	FR2	0	R1006P
2463.17	1.6	1355601	WORD	n/a	wordpools/wordpool_EN.txt	ELF	4	0	24	[0, 0, 0]	n/a	0	1	0	n/a	n/a	0.0	0	0	0	FR2	0	R1006P
2465.449	4.6	1356767	STIM_ON	n/a	n/a	n/a	-999	0	24	[0, 0, 0]	n/a	1	1	4600	DEC3	DEC4	1000.0	50	230	300	FR2	0	R1006P
2465.654	1.6	1356872	WORD	n/a	wordpools/wordpool_EN.txt	CAPE	5	0	24	[0, 0, 0]	n/a	1	1	4600	DEC3	DEC4	1000.0	50	230	300	FR2	0	R1006P
2468.071	1.6	1358110	WORD	n/a	wordpools/wordpool_EN.txt	NET	6	0	24	[0, 0, 0]	n/a	1	1	4600	DEC3	DEC4	1000.0	50	230	300	FR2	0	R1006P
2470.537	1.6	1359372	WORD	n/a	wordpools/wordpool_EN.txt	SEA	7	0	24	[0, 0, 0]	n/a	0	1	0	n/a	n/a	0.0	0	0	0	FR2	0	R1006P
2473.055	1.6	1360661	WORD	n/a	wordpools/wordpool_EN.txt	SHEET	8	1	24	[0, 0, 0]	n/a	0	1	0	n/a	n/a	0.0	0	0	0	FR2	0	R1006P
2475.301	4.6	1361811	STIM_ON	n/a	n/a	n/a	-999	0	24	[0, 0, 0]	n/a	1	1	4600	DEC3	DEC4	1000.0	50	230	300	FR2	0	R1006P
2475.505	1.6	1361916	WORD	n/a	wordpools/wordpool_EN.txt	GOLD	9	1	24	[0, 0, 0]	n/a	1	1	4600	DEC3	DEC4	1000.0	50	230	300	FR2	0	R1006P
2477.989	1.6	1363187	WORD	n/a	wordpools/wordpool_EN.txt	CLAY	10	1	24	[0, 0, 0]	n/a	1	1	4600	DEC3	DEC4	1000.0	50	230	300	FR2	0	R1006P
2480.54	1.6	1364493	WORD	n/a	wordpools/wordpool_EN.txt	PEARL	11	0	24	[0, 0, 0]	n/a	0	1	0	n/a	n/a	0.0	0	0	0	FR2	0	R1006P
2482.924	1.6	1365714	WORD	n/a	wordpools/wordpool_EN.txt	COIN	12	1	24	[0, 0, 0]	n/a	0	1	0	n/a	n/a	0.0	0	0	0	FR2	0	R1006P
2484.541	0.001	1366542	DISTRACT_START	n/a	n/a	n/a	-999	0	24	[0, 0, 0]	n/a	0	1	0	n/a	n/a	0.0	0	0	0	FR2	0	R1006P
2484.542	0.015	1366542	START	n/a	n/a	n/a	-999	0	24	[-999, -999, -999]	n/a	0	1	0	n/a	n/a	0.0	0	0	0	FR2	0	R1006P
2484.557	9.135	1366550	PROB	9.106	n/a	n/a	-999	0	24	[2, 7, 4]	23	0	1	0	n/a	n/a	0.0	0	0	0	FR2	0	R1006P
2493.692	11.035	1371227	PROB	11.035	n/a	n/a	-999	0	24	[2, 8, 2]	12	0	1	0	n/a	n/a	0.0	0	0	0	FR2	0	R1006P
2504.727	0.018	1376877	STOP	n/a	n/a	n/a	-999	0	24	[-999, -999, -999]	n/a	0	1	0	n/a	n/a	0.0	0	0	0	FR2	0	R1006P
2504.745	1.117	1376886	DISTRACT_END	n/a	n/a	n/a	-999	0	24	[0, 0, 0]	n/a	0	1	0	n/a	n/a	0.0	0	0	0	FR2	0	R1006P
2505.862	2.269	1377458	REC_START	n/a	n/a	n/a	-999	0	24	[0, 0, 0]	n/a	0	1	0	n/a	n/a	0.0	0	0	0	FR2	0	R1006P
2508.131	0.788	1378619	REC_WORD	2.269	n/a	SHEET	8	1	24	[0, 0, 0]	n/a	0	1	0	n/a	n/a	0.0	0	0	0	FR2	0	R1006P
2508.919	0.742	1379023	REC_WORD	3.057	n/a	CLAY	10	1	24	[0, 0, 0]	n/a	0	1	0	n/a	n/a	0.0	0	0	0	FR2	0	R1006P
2509.661	0.893	1379403	REC_WORD	3.799	n/a	GOLD	9	1	24	[0, 0, 0]	n/a	0	1	0	n/a	n/a	0.0	0	0	0	FR2	0	R1006P
2510.554	2.196	1379860	REC_WORD	4.692	n/a	COIN	12	1	24	[0, 0, 0]	n/a	0	1	0	n/a	n/a	0.0	0	0	0	FR2	0	R1006P
2512.75	23.123	1380984	REC_WORD_VV	6.888	n/a	<>	-999	0	24	[0, 0, 0]	n/a	0	1	0	n/a	n/a	0.0	0	0	0	FR2	0	R1006P
2535.873	2.328	1392822	REC_END	n/a	n/a	n/a	-999	0	24	[0, 0, 0]	n/a	0	1	0	n/a	n/a	0.0	0	0	0	FR2	0	R1006P
2538.201	0.0	1394014	TRIAL	n/a	n/a	n/a	-999	0	25	[0, 0, 0]	n/a	0	0	0	n/a	n/a	0.0	0	0	0	FR2	0	R1006P
2538.201	10.0	1394014	COUNTDOWN_START	n/a	n/a	n/a	-999	0	25	[0, 0, 0]	n/a	0	0	0	n/a	n/a	0.0	0	0	0	FR2	0	R1006P
2548.629	0.007	1399353	COUNTDOWN_END	n/a	n/a	n/a	-999	0	25	[0, 0, 0]	n/a	0	0	0	n/a	n/a	0.0	0	0	0	FR2	0	R1006P
2548.636	1.6	1399357	ORIENT	n/a	n/a	n/a	-999	0	25	[0, 0, 0]	n/a	0	0	0	n/a	n/a	0.0	0	0	0	FR2	0	R1006P
2551.07	1.6	1400603	WORD	n/a	wordpools/wordpool_EN.txt	RAKE	1	0	25	[0, 0, 0]	n/a	0	0	0	n/a	n/a	0.0	0	0	0	FR2	0	R1006P
2553.503	1.6	1401849	WORD	n/a	wordpools/wordpool_EN.txt	TEETH	2	0	25	[0, 0, 0]	n/a	0	0	0	n/a	n/a	0.0	0	0	0	FR2	0	R1006P
2556.088	1.6	1403172	WORD	n/a	wordpools/wordpool_EN.txt	CROWN	3	1	25	[0, 0, 0]	n/a	0	0	0	n/a	n/a	0.0	0	0	0	FR2	0	R1006P
2558.571	1.6	1404443	WORD	n/a	wordpools/wordpool_EN.txt	BEAR	4	1	25	[0, 0, 0]	n/a	0	0	0	n/a	n/a	0.0	0	0	0	FR2	0	R1006P
2561.139	1.6	1405758	WORD	n/a	wordpools/wordpool_EN.txt	FISH	5	1	25	[0, 0, 0]	n/a	0	0	0	n/a	n/a	0.0	0	0	0	FR2	0	R1006P
2563.521	1.6	1406978	WORD	n/a	wordpools/wordpool_EN.txt	BIRD	6	1	25	[0, 0, 0]	n/a	0	0	0	n/a	n/a	0.0	0	0	0	FR2	0	R1006P
2565.973	1.6	1408233	WORD	n/a	wordpools/wordpool_EN.txt	DUCK	7	0	25	[0, 0, 0]	n/a	0	0	0	n/a	n/a	0.0	0	0	0	FR2	0	R1006P
2568.44	1.6	1409496	WORD	n/a	wordpools/wordpool_EN.txt	SHRIMP	8	1	25	[0, 0, 0]	n/a	0	0	0	n/a	n/a	0.0	0	0	0	FR2	0	R1006P
2570.84	1.6	1410725	WORD	n/a	wordpools/wordpool_EN.txt	DEER	9	0	25	[0, 0, 0]	n/a	0	0	0	n/a	n/a	0.0	0	0	0	FR2	0	R1006P
2573.274	1.6	1411971	WORD	n/a	wordpools/wordpool_EN.txt	FRUIT	10	0	25	[0, 0, 0]	n/a	0	0	0	n/a	n/a	0.0	0	0	0	FR2	0	R1006P
2575.708	1.6	1413217	WORD	n/a	wordpools/wordpool_EN.txt	RIB	11	0	25	[0, 0, 0]	n/a	0	0	0	n/a	n/a	0.0	0	0	0	FR2	0	R1006P
2578.275	1.6	1414531	WORD	n/a	wordpools/wordpool_EN.txt	WORM	12	0	25	[0, 0, 0]	n/a	0	0	0	n/a	n/a	0.0	0	0	0	FR2	0	R1006P
2579.892	0.001	1415359	DISTRACT_START	n/a	n/a	n/a	-999	0	25	[0, 0, 0]	n/a	0	0	0	n/a	n/a	0.0	0	0	0	FR2	0	R1006P
2579.893	0.016	1415360	START	n/a	n/a	n/a	-999	0	25	[-999, -999, -999]	n/a	0	0	0	n/a	n/a	0.0	0	0	0	FR2	0	R1006P
2579.909	4.634	1415368	PROB	4.601	n/a	n/a	-999	0	25	[3, 4, 4]	11	0	0	0	n/a	n/a	0.0	0	0	0	FR2	0	R1006P
2584.543	11.985	1417740	PROB	11.952	n/a	n/a	-999	0	25	[6, 3, 8]	17	0	0	0	n/a	n/a	0.0	0	0	0	FR2	0	R1006P
2596.528	5.647	1423876	PROB	5.647	n/a	n/a	-999	0	25	[9, 3, 3]	15	0	0	0	n/a	n/a	0.0	0	0	0	FR2	0	R1006P
2602.175	0.004	1426767	STOP	n/a	n/a	n/a	-999	0	25	[-999, -999, -999]	n/a	0	0	0	n/a	n/a	0.0	0	0	0	FR2	0	R1006P
2602.179	1.035	1426769	DISTRACT_END	n/a	n/a	n/a	-999	0	25	[0, 0, 0]	n/a	0	0	0	n/a	n/a	0.0	0	0	0	FR2	0	R1006P
2603.214	2.153	1427299	REC_START	n/a	n/a	n/a	-999	0	25	[0, 0, 0]	n/a	0	0	0	n/a	n/a	0.0	0	0	0	FR2	0	R1006P
2605.367	0.505	1428402	REC_WORD	2.153	n/a	BEAR	4	1	25	[0, 0, 0]	n/a	0	0	0	n/a	n/a	0.0	0	0	0	FR2	0	R1006P
2605.872	1.736	1428660	REC_WORD	2.658	n/a	FISH	5	1	25	[0, 0, 0]	n/a	0	0	0	n/a	n/a	0.0	0	0	0	FR2	0	R1006P
2607.608	2.708	1429549	REC_WORD	4.394	n/a	BIRD	6	1	25	[0, 0, 0]	n/a	0	0	0	n/a	n/a	0.0	0	0	0	FR2	0	R1006P
2610.316	3.01	1430935	REC_WORD	7.102	n/a	SHRIMP	8	1	25	[0, 0, 0]	n/a	0	0	0	n/a	n/a	0.0	0	0	0	FR2	0	R1006P
2613.326	1.869	1432476	REC_WORD_VV	10.112	n/a	<>	-999	0	25	[0, 0, 0]	n/a	0	0	0	n/a	n/a	0.0	0	0	0	FR2	0	R1006P
2615.195	18.03	1433433	REC_WORD	11.981	n/a	CROWN	3	1	25	[0, 0, 0]	n/a	0	0	0	n/a	n/a	0.0	0	0	0	FR2	0	R1006P
2633.225	8.579	1442664	REC_END	n/a	n/a	n/a	-999	0	25	[0, 0, 0]	n/a	0	0	0	n/a	n/a	0.0	0	0	0	FR2	0	R1006P
2641.804	0.0	1447056	SESS_END	n/a	n/a	n/a	-999	0	25	[0, 0, 0]	n/a	0	0	0	n/a	n/a	0.0	0	0	0	FR2	0	R1006P
