onset	duration	sample	trial_type	response_time	stim_file	item_name	serialpos	list	test	answer	stimulation	stim_list	stim_duration	anode_label	cathode_label	amplitude	pulse_freq	n_pulses	pulse_width	experiment	session	subject
0.0	186.93	653794	SESS_START	n/a	n/a	n/a	-999	-999	[0, 0, 0]	n/a	0	0	0	n/a	n/a	0.0	0	0	0	FR2	0	R1070T
186.93	10.0	840715	COUNTDOWN_START	n/a	n/a	n/a	-999	-999	[0, 0, 0]	n/a	0	0	0	n/a	n/a	0.0	0	0	0	FR2	0	R1070T
197.358	3.709	851142	COUNTDOWN_END	n/a	n/a	n/a	-999	-999	[0, 0, 0]	n/a	0	0	0	n/a	n/a	0.0	0	0	0	FR2	0	R1070T
201.067	1.6	854851	PRACTICE_WORD	n/a	n/a	RINOCERONTE	1	-1	[0, 0, 0]	n/a	0	0	0	n/a	n/a	0.0	0	0	0	FR2	0	R1070T
203.666	1.6	857450	PRACTICE_WORD	n/a	n/a	ALGODON	2	-1	[0, 0, 0]	n/a	0	0	0	n/a	n/a	0.0	0	0	0	FR2	0	R1070T
206.118	1.6	859902	PRACTICE_WORD	n/a	n/a	INUNDACION	3	-1	[0, 0, 0]	n/a	0	0	0	n/a	n/a	0.0	0	0	0	FR2	0	R1070T
208.567	1.6	862351	PRACTICE_WORD	n/a	n/a	LENGUA	4	-1	[0, 0, 0]	n/a	0	0	0	n/a	n/a	0.0	0	0	0	FR2	0	R1070T
211.135	1.6	864919	PRACTICE_WORD	n/a	n/a	ATICO	5	-1	[0, 0, 0]	n/a	0	0	0	n/a	n/a	0.0	0	0	0	FR2	0	R1070T
213.685	1.6	867469	PRACTICE_WORD	n/a	n/a	ANILLO	6	-1	[0, 0, 0]	n/a	0	0	0	n/a	n/a	0.0	0	0	0	FR2	0	R1070T
216.07	1.6	869853	PRACTICE_WORD	n/a	n/a	VAGON	7	-1	[0, 0, 0]	n/a	0	0	0	n/a	n/a	0.0	0	0	0	FR2	0	R1070T
218.603	1.6	872386	PRACTICE_WORD	n/a	n/a	CAMELLO	8	-1	[0, 0, 0]	n/a	0	0	0	n/a	n/a	0.0	0	0	0	FR2	0	R1070T
221.17	1.6	874953	PRACTICE_WORD	n/a	n/a	RELOJ	9	-1	[0, 0, 0]	n/a	0	0	0	n/a	n/a	0.0	0	0	0	FR2	0	R1070T
223.787	1.6	877570	PRACTICE_WORD	n/a	n/a	HIERRO	10	-1	[0, 0, 0]	n/a	0	0	0	n/a	n/a	0.0	0	0	0	FR2	0	R1070T
226.372	1.6	880155	PRACTICE_WORD	n/a	n/a	PECHO	11	-1	[0, 0, 0]	n/a	0	0	0	n/a	n/a	0.0	0	0	0	FR2	0	R1070T
228.821	1.6	882604	PRACTICE_WORD	n/a	n/a	HAZ	12	-1	[0, 0, 0]	n/a	0	0	0	n/a	n/a	0.0	0	0	0	FR2	0	R1070T
230.422	0.001	884205	PRACTICE_DISTRACT_START	n/a	n/a	n/a	-999	-1	[0, 0, 0]	n/a	0	0	0	n/a	n/a	0.0	0	0	0	FR2	0	R1070T
230.423	0.016	884206	START	n/a	n/a	n/a	-999	-1	[-999, -999, -999]	n/a	0	0	0	n/a	n/a	0.0	0	0	0	FR2	0	R1070T
230.439	5.718	884222	PROB	5.687	n/a	n/a	-999	-1	[6, 5, 5]	16	0	0	0	n/a	n/a	0.0	0	0	0	FR2	0	R1070T
236.157	4.366	889939	PROB	4.337	n/a	n/a	-999	-1	[4, 1, 9]	14	0	0	0	n/a	n/a	0.0	0	0	0	FR2	0	R1070T
240.523	7.736	894305	PROB	7.715	n/a	n/a	-999	-1	[7, 3, 6]	16	0	0	0	n/a	n/a	0.0	0	0	0	FR2	0	R1070T
248.259	13.41	902041	PROB	13.41	n/a	n/a	-999	-1	[5, 9, 3]	17	0	0	0	n/a	n/a	0.0	0	0	0	FR2	0	R1070T
261.669	0.008	915450	STOP	n/a	n/a	n/a	-999	-1	[-999, -999, -999]	n/a	0	0	0	n/a	n/a	0.0	0	0	0	FR2	0	R1070T
261.677	0.67	915458	PRACTICE_DISTRACT_END	n/a	n/a	n/a	-999	-1	[0, 0, 0]	n/a	0	0	0	n/a	n/a	0.0	0	0	0	FR2	0	R1070T
262.347	30.514	916128	PRACTICE_REC_START	n/a	n/a	n/a	-999	-1	[0, 0, 0]	n/a	0	0	0	n/a	n/a	0.0	0	0	0	FR2	0	R1070T
292.861	17.409	946641	PRACTICE_REC_END	n/a	n/a	n/a	-999	-1	[0, 0, 0]	n/a	0	0	0	n/a	n/a	0.0	0	0	0	FR2	0	R1070T
310.27	10.0	964049	COUNTDOWN_START	n/a	n/a	n/a	-999	1	[0, 0, 0]	n/a	0	1	0	n/a	n/a	0.0	0	0	0	FR2	0	R1070T
310.271	10.427	964050	TRIAL	n/a	n/a	n/a	-999	1	[0, 0, 0]	n/a	0	1	0	n/a	n/a	0.0	0	0	0	FR2	0	R1070T
320.698	0.006	974476	COUNTDOWN_END	n/a	n/a	n/a	-999	1	[0, 0, 0]	n/a	0	1	0	n/a	n/a	0.0	0	0	0	FR2	0	R1070T
320.704	1.6	974482	ORIENT	n/a	n/a	n/a	-999	1	[0, 0, 0]	n/a	0	1	0	n/a	n/a	0.0	0	0	0	FR2	0	R1070T
323.289	1.6	977067	WORD	n/a	wordpools/wordpool_SP.txt	SEMILLA	1	1	[0, 0, 0]	n/a	0	1	0	n/a	n/a	0.0	0	0	0	FR2	0	R1070T
325.822	1.6	979600	WORD	n/a	wordpools/wordpool_SP.txt	CONO	2	1	[0, 0, 0]	n/a	0	1	0	n/a	n/a	0.0	0	0	0	FR2	0	R1070T
328.211	4.6	981989	STIM_ON	n/a	n/a	n/a	-999	1	[0, 0, 0]	n/a	1	1	4600	RB2	RB3	500.0	50	230	300	FR2	0	R1070T
328.424	1.6	982202	WORD	n/a	wordpools/wordpool_SP.txt	ZANJA	3	1	[0, 0, 0]	n/a	1	1	4600	RB2	RB3	500.0	50	230	300	FR2	0	R1070T
331.056	1.6	984834	WORD	n/a	wordpools/wordpool_SP.txt	FRIJOL	4	1	[0, 0, 0]	n/a	1	1	4600	RB2	RB3	500.0	50	230	300	FR2	0	R1070T
333.59	1.6	987368	WORD	n/a	wordpools/wordpool_SP.txt	COMIDA	5	1	[0, 0, 0]	n/a	0	1	0	n/a	n/a	0.0	0	0	0	FR2	0	R1070T
336.192	1.6	989970	WORD	n/a	wordpools/wordpool_SP.txt	LUNA	6	1	[0, 0, 0]	n/a	0	1	0	n/a	n/a	0.0	0	0	0	FR2	0	R1070T
338.464	4.6	992241	STIM_ON	n/a	n/a	n/a	-999	1	[0, 0, 0]	n/a	1	1	4600	RB2	RB3	500.0	50	230	300	FR2	0	R1070T
338.674	1.6	992451	WORD	n/a	wordpools/wordpool_SP.txt	VID	7	1	[0, 0, 0]	n/a	1	1	4600	RB2	RB3	500.0	50	230	300	FR2	0	R1070T
341.093	1.6	994870	WORD	n/a	wordpools/wordpool_SP.txt	MALEZA	8	1	[0, 0, 0]	n/a	1	1	4600	RB2	RB3	500.0	50	230	300	FR2	0	R1070T
343.642	1.6	997419	WORD	n/a	wordpools/wordpool_SP.txt	SORBETE	9	1	[0, 0, 0]	n/a	0	1	0	n/a	n/a	0.0	0	0	0	FR2	0	R1070T
346.26	1.6	1000037	WORD	n/a	wordpools/wordpool_SP.txt	FICHA	10	1	[0, 0, 0]	n/a	0	1	0	n/a	n/a	0.0	0	0	0	FR2	0	R1070T
348.634	4.6	1002411	STIM_ON	n/a	n/a	n/a	-999	1	[0, 0, 0]	n/a	1	1	4600	RB2	RB3	500.0	50	230	300	FR2	0	R1070T
348.843	1.6	1002620	WORD	n/a	wordpools/wordpool_SP.txt	MEJILLA	11	1	[0, 0, 0]	n/a	1	1	4600	RB2	RB3	500.0	50	230	300	FR2	0	R1070T
351.244	1.6	1005021	WORD	n/a	wordpools/wordpool_SP.txt	SILLA	12	1	[0, 0, 0]	n/a	1	1	4600	RB2	RB3	500.0	50	230	300	FR2	0	R1070T
352.86	0.001	1006637	DISTRACT_START	n/a	n/a	n/a	-999	1	[0, 0, 0]	n/a	1	1	4600	RB2	RB3	500.0	50	230	300	FR2	0	R1070T
352.861	0.016	1006638	START	n/a	n/a	n/a	-999	1	[-999, -999, -999]	n/a	0	1	0	n/a	n/a	0.0	0	0	0	FR2	0	R1070T
352.877	6.685	1006654	PROB	6.656	n/a	n/a	-999	1	[4, 4, 4]	12	0	1	0	n/a	n/a	0.0	0	0	0	FR2	0	R1070T
359.562	5.201	1013338	PROB	5.171	n/a	n/a	-999	1	[4, 6, 9]	19	0	1	0	n/a	n/a	0.0	0	0	0	FR2	0	R1070T
364.763	7.968	1018539	PROB	7.947	n/a	n/a	-999	1	[7, 8, 9]	24	0	1	0	n/a	n/a	0.0	0	0	0	FR2	0	R1070T
372.731	4.595	1026507	PROB	4.595	n/a	n/a	-999	1	[9, 1, 8]	18	0	1	0	n/a	n/a	0.0	0	0	0	FR2	0	R1070T
377.326	0.006	1031102	STOP	n/a	n/a	n/a	-999	1	[-999, -999, -999]	n/a	0	1	0	n/a	n/a	0.0	0	0	0	FR2	0	R1070T
377.332	1.123	1031108	DISTRACT_END	n/a	n/a	n/a	-999	1	[0, 0, 0]	n/a	0	1	0	n/a	n/a	0.0	0	0	0	FR2	0	R1070T
378.455	0.709	1032230	REC_START	n/a	n/a	n/a	-999	1	[0, 0, 0]	n/a	0	1	0	n/a	n/a	0.0	0	0	0	FR2	0	R1070T
379.164	1.465	1032939	REC_WORD	0.709	n/a	SEMILLA	-999	1	[0, 0, 0]	n/a	0	1	0	n/a	n/a	0.0	0	0	0	FR2	0	R1070T
380.629	1.335	1034404	REC_WORD	2.174	n/a	MALEZA	-999	1	[0, 0, 0]	n/a	0	1	0	n/a	n/a	0.0	0	0	0	FR2	0	R1070T
381.964	26.498	1035739	REC_WORD	3.509	n/a	FRIJOL	-999	1	[0, 0, 0]	n/a	0	1	0	n/a	n/a	0.0	0	0	0	FR2	0	R1070T
408.462	5.977	1062236	REC_END	n/a	n/a	n/a	-999	1	[0, 0, 0]	n/a	0	1	0	n/a	n/a	0.0	0	0	0	FR2	0	R1070T
414.439	0.0	1068213	TRIAL	n/a	n/a	n/a	-999	2	[0, 0, 0]	n/a	0	1	0	n/a	n/a	0.0	0	0	0	FR2	0	R1070T
414.439	10.0	1068213	COUNTDOWN_START	n/a	n/a	n/a	-999	2	[0, 0, 0]	n/a	0	1	0	n/a	n/a	0.0	0	0	0	FR2	0	R1070T
424.867	0.007	1078640	COUNTDOWN_END	n/a	n/a	n/a	-999	2	[0, 0, 0]	n/a	0	1	0	n/a	n/a	0.0	0	0	0	FR2	0	R1070T
424.874	1.6	1078647	ORIENT	n/a	n/a	n/a	-999	2	[0, 0, 0]	n/a	0	1	0	n/a	n/a	0.0	0	0	0	FR2	0	R1070T
427.152	4.6	1080925	STIM_ON	n/a	n/a	n/a	-999	2	[0, 0, 0]	n/a	1	1	4600	RB2	RB3	500.0	50	230	300	FR2	0	R1070T
427.358	1.6	1081131	WORD	n/a	wordpools/wordpool_SP.txt	MOFETA	1	2	[0, 0, 0]	n/a	1	1	4600	RB2	RB3	500.0	50	230	300	FR2	0	R1070T
429.891	1.6	1083664	WORD	n/a	wordpools/wordpool_SP.txt	BARCO	2	2	[0, 0, 0]	n/a	1	1	4600	RB2	RB3	500.0	50	230	300	FR2	0	R1070T
432.309	1.6	1086082	WORD	n/a	wordpools/wordpool_SP.txt	PAN	3	2	[0, 0, 0]	n/a	0	1	0	n/a	n/a	0.0	0	0	0	FR2	0	R1070T
434.892	1.6	1088665	WORD	n/a	wordpools/wordpool_SP.txt	ARBUSTO	4	2	[0, 0, 0]	n/a	0	1	0	n/a	n/a	0.0	0	0	0	FR2	0	R1070T
437.069	4.6	1090842	STIM_ON	n/a	n/a	n/a	-999	2	[0, 0, 0]	n/a	1	1	4600	RB2	RB3	500.0	50	230	300	FR2	0	R1070T
437.277	1.6	1091050	WORD	n/a	wordpools/wordpool_SP.txt	NUBE	5	2	[0, 0, 0]	n/a	1	1	4600	RB2	RB3	500.0	50	230	300	FR2	0	R1070T
439.726	1.6	1093498	WORD	n/a	wordpools/wordpool_SP.txt	CARRETERA	6	2	[0, 0, 0]	n/a	1	1	4600	RB2	RB3	500.0	50	230	300	FR2	0	R1070T
442.094	1.6	1095866	WORD	n/a	wordpools/wordpool_SP.txt	LIMO	7	2	[0, 0, 0]	n/a	0	1	0	n/a	n/a	0.0	0	0	0	FR2	0	R1070T
444.71	1.6	1098482	WORD	n/a	wordpools/wordpool_SP.txt	CORDERO	8	2	[0, 0, 0]	n/a	0	1	0	n/a	n/a	0.0	0	0	0	FR2	0	R1070T
446.969	4.6	1100741	STIM_ON	n/a	n/a	n/a	-999	2	[0, 0, 0]	n/a	1	1	4600	RB2	RB3	500.0	50	230	300	FR2	0	R1070T
447.179	1.6	1100951	WORD	n/a	wordpools/wordpool_SP.txt	CORAZON	9	2	[0, 0, 0]	n/a	1	1	4600	RB2	RB3	500.0	50	230	300	FR2	0	R1070T
449.745	1.6	1103517	WORD	n/a	wordpools/wordpool_SP.txt	PUENTE	10	2	[0, 0, 0]	n/a	1	1	4600	RB2	RB3	500.0	50	230	300	FR2	0	R1070T
452.18	1.6	1105952	WORD	n/a	wordpools/wordpool_SP.txt	HOJA	11	2	[0, 0, 0]	n/a	0	1	0	n/a	n/a	0.0	0	0	0	FR2	0	R1070T
454.562	1.6	1108334	WORD	n/a	wordpools/wordpool_SP.txt	BOLSO	12	2	[0, 0, 0]	n/a	0	1	0	n/a	n/a	0.0	0	0	0	FR2	0	R1070T
456.18	0.001	1109952	DISTRACT_START	n/a	n/a	n/a	-999	2	[0, 0, 0]	n/a	0	1	0	n/a	n/a	0.0	0	0	0	FR2	0	R1070T
456.181	0.016	1109953	START	n/a	n/a	n/a	-999	2	[-999, -999, -999]	n/a	0	1	0	n/a	n/a	0.0	0	0	0	FR2	0	R1070T
456.197	8.201	1109969	PROB	8.169	n/a	n/a	-999	2	[8, 4, 4]	16	0	1	0	n/a	n/a	0.0	0	0	0	FR2	0	R1070T
464.398	4.167	1118169	PROB	4.143	n/a	n/a	-999	2	[4, 3, 5]	12	0	1	0	n/a	n/a	0.0	0	0	0	FR2	0	R1070T
468.565	7.318	1122336	PROB	7.296	n/a	n/a	-999	2	[8, 4, 5]	17	0	1	0	n/a	n/a	0.0	0	0	0	FR2	0	R1070T
475.883	4.778	1129654	PROB	4.778	n/a	n/a	-999	2	[8, 4, 6]	18	0	1	0	n/a	n/a	0.0	0	0	0	FR2	0	R1070T
480.661	0.006	1134431	STOP	n/a	n/a	n/a	-999	2	[-999, -999, -999]	n/a	0	1	0	n/a	n/a	0.0	0	0	0	FR2	0	R1070T
480.667	1.084	1134437	DISTRACT_END	n/a	n/a	n/a	-999	2	[0, 0, 0]	n/a	0	1	0	n/a	n/a	0.0	0	0	0	FR2	0	R1070T
481.751	1.175	1135521	REC_START	n/a	n/a	n/a	-999	2	[0, 0, 0]	n/a	0	1	0	n/a	n/a	0.0	0	0	0	FR2	0	R1070T
482.926	1.108	1136696	REC_WORD	1.175	n/a	CIELO	-999	2	[0, 0, 0]	n/a	0	1	0	n/a	n/a	0.0	0	0	0	FR2	0	R1070T
484.034	3.652	1137804	REC_WORD	2.283	n/a	HOJA	-999	2	[0, 0, 0]	n/a	0	1	0	n/a	n/a	0.0	0	0	0	FR2	0	R1070T
487.686	24.078	1141456	REC_WORD	5.935	n/a	PUENTE	-999	2	[0, 0, 0]	n/a	0	1	0	n/a	n/a	0.0	0	0	0	FR2	0	R1070T
511.764	3.143	1165533	REC_END	n/a	n/a	n/a	-999	2	[0, 0, 0]	n/a	0	1	0	n/a	n/a	0.0	0	0	0	FR2	0	R1070T
514.907	10.0	1168676	COUNTDOWN_START	n/a	n/a	n/a	-999	3	[0, 0, 0]	n/a	0	1	0	n/a	n/a	0.0	0	0	0	FR2	0	R1070T
514.907	10.428	1168676	TRIAL	n/a	n/a	n/a	-999	3	[0, 0, 0]	n/a	0	1	0	n/a	n/a	0.0	0	0	0	FR2	0	R1070T
525.335	0.008	1179103	COUNTDOWN_END	n/a	n/a	n/a	-999	3	[0, 0, 0]	n/a	0	1	0	n/a	n/a	0.0	0	0	0	FR2	0	R1070T
525.343	1.6	1179111	ORIENT	n/a	n/a	n/a	-999	3	[0, 0, 0]	n/a	0	1	0	n/a	n/a	0.0	0	0	0	FR2	0	R1070T
527.644	4.6	1181412	STIM_ON	n/a	n/a	n/a	-999	3	[0, 0, 0]	n/a	1	1	4600	RB2	RB3	500.0	50	230	300	FR2	0	R1070T
527.859	1.6	1181627	WORD	n/a	wordpools/wordpool_SP.txt	CAMIONETA	1	3	[0, 0, 0]	n/a	1	1	4600	RB2	RB3	500.0	50	230	300	FR2	0	R1070T
530.41	1.6	1184178	WORD	n/a	wordpools/wordpool_SP.txt	BANDEJA	2	3	[0, 0, 0]	n/a	1	1	4600	RB2	RB3	500.0	50	230	300	FR2	0	R1070T
532.877	1.6	1186645	WORD	n/a	wordpools/wordpool_SP.txt	MAPA	3	3	[0, 0, 0]	n/a	0	1	0	n/a	n/a	0.0	0	0	0	FR2	0	R1070T
535.495	1.6	1189263	WORD	n/a	wordpools/wordpool_SP.txt	GUANTE	4	3	[0, 0, 0]	n/a	0	1	0	n/a	n/a	0.0	0	0	0	FR2	0	R1070T
537.726	4.6	1191494	STIM_ON	n/a	n/a	n/a	-999	3	[0, 0, 0]	n/a	1	1	4600	RB2	RB3	500.0	50	230	300	FR2	0	R1070T
537.944	1.6	1191712	WORD	n/a	wordpools/wordpool_SP.txt	ESPONJA	5	3	[0, 0, 0]	n/a	1	1	4600	RB2	RB3	500.0	50	230	300	FR2	0	R1070T
540.479	1.6	1194247	WORD	n/a	wordpools/wordpool_SP.txt	PAGINA	6	3	[0, 0, 0]	n/a	1	1	4600	RB2	RB3	500.0	50	230	300	FR2	0	R1070T
543.062	1.6	1196829	WORD	n/a	wordpools/wordpool_SP.txt	AGUANIEVE	7	3	[0, 0, 0]	n/a	0	1	0	n/a	n/a	0.0	0	0	0	FR2	0	R1070T
545.595	1.6	1199362	WORD	n/a	wordpools/wordpool_SP.txt	CARCEL	8	3	[0, 0, 0]	n/a	0	1	0	n/a	n/a	0.0	0	0	0	FR2	0	R1070T
547.809	4.6	1201576	STIM_ON	n/a	n/a	n/a	-999	3	[0, 0, 0]	n/a	1	1	4600	RB2	RB3	500.0	50	230	300	FR2	0	R1070T
548.013	1.6	1201780	WORD	n/a	wordpools/wordpool_SP.txt	ASIENTO	9	3	[0, 0, 0]	n/a	1	1	4600	RB2	RB3	500.0	50	230	300	FR2	0	R1070T
550.414	1.6	1204181	WORD	n/a	wordpools/wordpool_SP.txt	CALLE	10	3	[0, 0, 0]	n/a	1	1	4600	RB2	RB3	500.0	50	230	300	FR2	0	R1070T
552.997	1.6	1206764	WORD	n/a	wordpools/wordpool_SP.txt	CORBATA	11	3	[0, 0, 0]	n/a	0	1	0	n/a	n/a	0.0	0	0	0	FR2	0	R1070T
555.448	1.6	1209215	WORD	n/a	wordpools/wordpool_SP.txt	PALO	12	3	[0, 0, 0]	n/a	0	1	0	n/a	n/a	0.0	0	0	0	FR2	0	R1070T
557.065	0.001	1210832	DISTRACT_START	n/a	n/a	n/a	-999	3	[0, 0, 0]	n/a	0	1	0	n/a	n/a	0.0	0	0	0	FR2	0	R1070T
557.066	0.016	1210833	START	n/a	n/a	n/a	-999	3	[-999, -999, -999]	n/a	0	1	0	n/a	n/a	0.0	0	0	0	FR2	0	R1070T
557.082	8.235	1210849	PROB	8.212	n/a	n/a	-999	3	[6, 9, 3]	18	0	1	0	n/a	n/a	0.0	0	0	0	FR2	0	R1070T
565.317	3.867	1219083	PROB	3.834	n/a	n/a	-999	3	[2, 1, 4]	7	0	1	0	n/a	n/a	0.0	0	0	0	FR2	0	R1070T
569.184	3.8	1222950	PROB	3.773	n/a	n/a	-999	3	[1, 4, 9]	14	0	1	0	n/a	n/a	0.0	0	0	0	FR2	0	R1070T
572.984	5.438	1226750	PROB	5.438	n/a	n/a	-999	3	[4, 6, 5]	15	0	1	0	n/a	n/a	0.0	0	0	0	FR2	0	R1070T
578.422	0.014	1232188	STOP	n/a	n/a	n/a	-999	3	[-999, -999, -999]	n/a	0	1	0	n/a	n/a	0.0	0	0	0	FR2	0	R1070T
578.436	1.166	1232202	DISTRACT_END	n/a	n/a	n/a	-999	3	[0, 0, 0]	n/a	0	1	0	n/a	n/a	0.0	0	0	0	FR2	0	R1070T
579.602	1.33	1233368	REC_START	n/a	n/a	n/a	-999	3	[0, 0, 0]	n/a	0	1	0	n/a	n/a	0.0	0	0	0	FR2	0	R1070T
580.932	2.943	1234698	REC_WORD	1.33	n/a	CORBATA	-999	3	[0, 0, 0]	n/a	0	1	0	n/a	n/a	0.0	0	0	0	FR2	0	R1070T
583.875	5.266	1237640	REC_WORD	4.273	n/a	GUANTE	-999	3	[0, 0, 0]	n/a	0	1	0	n/a	n/a	0.0	0	0	0	FR2	0	R1070T
589.141	20.472	1242906	REC_WORD	9.539	n/a	CIELO	-999	3	[0, 0, 0]	n/a	0	1	0	n/a	n/a	0.0	0	0	0	FR2	0	R1070T
609.613	33.885	1263377	REC_END	n/a	n/a	n/a	-999	3	[0, 0, 0]	n/a	0	1	0	n/a	n/a	0.0	0	0	0	FR2	0	R1070T
643.498	0.0	1297260	TRIAL	n/a	n/a	n/a	-999	4	[0, 0, 0]	n/a	0	0	0	n/a	n/a	0.0	0	0	0	FR2	0	R1070T
643.498	10.0	1297260	COUNTDOWN_START	n/a	n/a	n/a	-999	4	[0, 0, 0]	n/a	0	0	0	n/a	n/a	0.0	0	0	0	FR2	0	R1070T
653.926	0.006	1307688	COUNTDOWN_END	n/a	n/a	n/a	-999	4	[0, 0, 0]	n/a	0	0	0	n/a	n/a	0.0	0	0	0	FR2	0	R1070T
653.932	1.6	1307694	ORIENT	n/a	n/a	n/a	-999	4	[0, 0, 0]	n/a	0	0	0	n/a	n/a	0.0	0	0	0	FR2	0	R1070T
656.417	1.6	1310179	WORD	n/a	wordpools/wordpool_SP.txt	SOGA	1	4	[0, 0, 0]	n/a	0	0	0	n/a	n/a	0.0	0	0	0	FR2	0	R1070T
658.883	1.6	1312645	WORD	n/a	wordpools/wordpool_SP.txt	CUERDA	2	4	[0, 0, 0]	n/a	0	0	0	n/a	n/a	0.0	0	0	0	FR2	0	R1070T
661.301	1.6	1315063	WORD	n/a	wordpools/wordpool_SP.txt	PICO	3	4	[0, 0, 0]	n/a	0	0	0	n/a	n/a	0.0	0	0	0	FR2	0	R1070T
663.8	1.6	1317561	WORD	n/a	wordpools/wordpool_SP.txt	GATO	4	4	[0, 0, 0]	n/a	0	0	0	n/a	n/a	0.0	0	0	0	FR2	0	R1070T
666.252	1.6	1320013	WORD	n/a	wordpools/wordpool_SP.txt	TAZON	5	4	[0, 0, 0]	n/a	0	0	0	n/a	n/a	0.0	0	0	0	FR2	0	R1070T
668.635	1.6	1322396	WORD	n/a	wordpools/wordpool_SP.txt	LLUVIA	6	4	[0, 0, 0]	n/a	0	0	0	n/a	n/a	0.0	0	0	0	FR2	0	R1070T
671.219	1.6	1324980	WORD	n/a	wordpools/wordpool_SP.txt	LODO	7	4	[0, 0, 0]	n/a	0	0	0	n/a	n/a	0.0	0	0	0	FR2	0	R1070T
673.702	1.6	1327463	WORD	n/a	wordpools/wordpool_SP.txt	ALFILER	8	4	[0, 0, 0]	n/a	0	0	0	n/a	n/a	0.0	0	0	0	FR2	0	R1070T
676.204	1.6	1329965	WORD	n/a	wordpools/wordpool_SP.txt	LANZA	9	4	[0, 0, 0]	n/a	0	0	0	n/a	n/a	0.0	0	0	0	FR2	0	R1070T
678.653	1.6	1332414	WORD	n/a	wordpools/wordpool_SP.txt	TELEFONO	10	4	[0, 0, 0]	n/a	0	0	0	n/a	n/a	0.0	0	0	0	FR2	0	R1070T
681.071	1.6	1334832	WORD	n/a	wordpools/wordpool_SP.txt	TAMBOR	11	4	[0, 0, 0]	n/a	0	0	0	n/a	n/a	0.0	0	0	0	FR2	0	R1070T
683.554	1.6	1337314	WORD	n/a	wordpools/wordpool_SP.txt	MENTON	12	4	[0, 0, 0]	n/a	0	0	0	n/a	n/a	0.0	0	0	0	FR2	0	R1070T
685.155	0.001	1338915	DISTRACT_START	n/a	n/a	n/a	-999	4	[0, 0, 0]	n/a	0	0	0	n/a	n/a	0.0	0	0	0	FR2	0	R1070T
685.156	0.016	1338916	START	n/a	n/a	n/a	-999	4	[-999, -999, -999]	n/a	0	0	0	n/a	n/a	0.0	0	0	0	FR2	0	R1070T
685.172	4.55	1338932	PROB	4.521	n/a	n/a	-999	4	[1, 9, 1]	11	0	0	0	n/a	n/a	0.0	0	0	0	FR2	0	R1070T
689.722	5.067	1343482	PROB	5.035	n/a	n/a	-999	4	[9, 6, 1]	16	0	0	0	n/a	n/a	0.0	0	0	0	FR2	0	R1070T
694.789	4.084	1348549	PROB	4.056	n/a	n/a	-999	4	[1, 2, 2]	5	0	0	0	n/a	n/a	0.0	0	0	0	FR2	0	R1070T
698.873	5.918	1352633	PROB	5.892	n/a	n/a	-999	4	[3, 9, 4]	16	0	0	0	n/a	n/a	0.0	0	0	0	FR2	0	R1070T
704.791	3.838	1358550	PROB	3.838	n/a	n/a	-999	4	[2, 1, 4]	7	0	0	0	n/a	n/a	0.0	0	0	0	FR2	0	R1070T
708.629	0.013	1362388	STOP	n/a	n/a	n/a	-999	4	[-999, -999, -999]	n/a	0	0	0	n/a	n/a	0.0	0	0	0	FR2	0	R1070T
708.642	1.151	1362401	DISTRACT_END	n/a	n/a	n/a	-999	4	[0, 0, 0]	n/a	0	0	0	n/a	n/a	0.0	0	0	0	FR2	0	R1070T
709.793	1.702	1363552	REC_START	n/a	n/a	n/a	-999	4	[0, 0, 0]	n/a	0	0	0	n/a	n/a	0.0	0	0	0	FR2	0	R1070T
711.495	3.905	1365254	REC_WORD	1.702	n/a	SOGA	-999	4	[0, 0, 0]	n/a	0	0	0	n/a	n/a	0.0	0	0	0	FR2	0	R1070T
715.4	4.539	1369159	REC_WORD	5.607	n/a	INTRUSION	-999	4	[0, 0, 0]	n/a	0	0	0	n/a	n/a	0.0	0	0	0	FR2	0	R1070T
719.939	16.917	1373698	REC_WORD	10.146	n/a	ALFILER	-999	4	[0, 0, 0]	n/a	0	0	0	n/a	n/a	0.0	0	0	0	FR2	0	R1070T
736.856	2.947	1390614	REC_WORD	27.063	n/a	DEDA	-999	4	[0, 0, 0]	n/a	0	0	0	n/a	n/a	0.0	0	0	0	FR2	0	R1070T
739.803	2.762	1393561	REC_END	n/a	n/a	n/a	-999	4	[0, 0, 0]	n/a	0	0	0	n/a	n/a	0.0	0	0	0	FR2	0	R1070T
742.565	0.0	1396323	TRIAL	n/a	n/a	n/a	-999	5	[0, 0, 0]	n/a	0	0	0	n/a	n/a	0.0	0	0	0	FR2	0	R1070T
742.565	10.0	1396323	COUNTDOWN_START	n/a	n/a	n/a	-999	5	[0, 0, 0]	n/a	0	0	0	n/a	n/a	0.0	0	0	0	FR2	0	R1070T
752.993	0.007	1406750	COUNTDOWN_END	n/a	n/a	n/a	-999	5	[0, 0, 0]	n/a	0	0	0	n/a	n/a	0.0	0	0	0	FR2	0	R1070T
753.0	1.6	1406757	ORIENT	n/a	n/a	n/a	-999	5	[0, 0, 0]	n/a	0	0	0	n/a	n/a	0.0	0	0	0	FR2	0	R1070T
755.451	1.6	1409208	WORD	n/a	wordpools/wordpool_SP.txt	FILETE	1	5	[0, 0, 0]	n/a	0	0	0	n/a	n/a	0.0	0	0	0	FR2	0	R1070T
757.851	1.6	1411608	WORD	n/a	wordpools/wordpool_SP.txt	VAPOR	2	5	[0, 0, 0]	n/a	0	0	0	n/a	n/a	0.0	0	0	0	FR2	0	R1070T
760.435	1.6	1414192	WORD	n/a	wordpools/wordpool_SP.txt	CABRA	3	5	[0, 0, 0]	n/a	0	0	0	n/a	n/a	0.0	0	0	0	FR2	0	R1070T
762.885	1.6	1416642	WORD	n/a	wordpools/wordpool_SP.txt	HABITACION	4	5	[0, 0, 0]	n/a	0	0	0	n/a	n/a	0.0	0	0	0	FR2	0	R1070T
765.403	1.6	1419159	WORD	n/a	wordpools/wordpool_SP.txt	UNA	5	5	[0, 0, 0]	n/a	0	0	0	n/a	n/a	0.0	0	0	0	FR2	0	R1070T
768.019	1.6	1421775	WORD	n/a	wordpools/wordpool_SP.txt	SERPIENTE	6	5	[0, 0, 0]	n/a	0	0	0	n/a	n/a	0.0	0	0	0	FR2	0	R1070T
770.62	1.6	1424376	WORD	n/a	wordpools/wordpool_SP.txt	GRANJA	7	5	[0, 0, 0]	n/a	0	0	0	n/a	n/a	0.0	0	0	0	FR2	0	R1070T
773.121	1.6	1426877	WORD	n/a	wordpools/wordpool_SP.txt	PEZUNA	8	5	[0, 0, 0]	n/a	0	0	0	n/a	n/a	0.0	0	0	0	FR2	0	R1070T
775.737	1.6	1429493	WORD	n/a	wordpools/wordpool_SP.txt	FRUTA	9	5	[0, 0, 0]	n/a	0	0	0	n/a	n/a	0.0	0	0	0	FR2	0	R1070T
778.206	1.6	1431962	WORD	n/a	wordpools/wordpool_SP.txt	CUERVO	10	5	[0, 0, 0]	n/a	0	0	0	n/a	n/a	0.0	0	0	0	FR2	0	R1070T
780.822	1.6	1434578	WORD	n/a	wordpools/wordpool_SP.txt	ESTANQUE	11	5	[0, 0, 0]	n/a	0	0	0	n/a	n/a	0.0	0	0	0	FR2	0	R1070T
783.34	1.6	1437096	WORD	n/a	wordpools/wordpool_SP.txt	CUERNO	12	5	[0, 0, 0]	n/a	0	0	0	n/a	n/a	0.0	0	0	0	FR2	0	R1070T
784.956	0.001	1438712	DISTRACT_START	n/a	n/a	n/a	-999	5	[0, 0, 0]	n/a	0	0	0	n/a	n/a	0.0	0	0	0	FR2	0	R1070T
784.957	0.016	1438713	START	n/a	n/a	n/a	-999	5	[-999, -999, -999]	n/a	0	0	0	n/a	n/a	0.0	0	0	0	FR2	0	R1070T
784.973	5.518	1438729	PROB	5.498	n/a	n/a	-999	5	[1, 2, 7]	10	0	0	0	n/a	n/a	0.0	0	0	0	FR2	0	R1070T
790.491	4.2	1444246	PROB	4.178	n/a	n/a	-999	5	[7, 7, 3]	17	0	0	0	n/a	n/a	0.0	0	0	0	FR2	0	R1070T
794.691	4.585	1448446	PROB	4.555	n/a	n/a	-999	5	[5, 8, 4]	17	0	0	0	n/a	n/a	0.0	0	0	0	FR2	0	R1070T
799.276	4.834	1453031	PROB	4.811	n/a	n/a	-999	5	[4, 2, 9]	15	0	0	0	n/a	n/a	0.0	0	0	0	FR2	0	R1070T
804.11	6.12	1457865	PROB	6.12	n/a	n/a	-999	5	[2, 6, 7]	15	0	0	0	n/a	n/a	0.0	0	0	0	FR2	0	R1070T
810.23	0.015	1463984	STOP	n/a	n/a	n/a	-999	5	[-999, -999, -999]	n/a	0	0	0	n/a	n/a	0.0	0	0	0	FR2	0	R1070T
810.245	1.167	1463999	DISTRACT_END	n/a	n/a	n/a	-999	5	[0, 0, 0]	n/a	0	0	0	n/a	n/a	0.0	0	0	0	FR2	0	R1070T
811.412	1.328	1465166	REC_START	n/a	n/a	n/a	-999	5	[0, 0, 0]	n/a	0	0	0	n/a	n/a	0.0	0	0	0	FR2	0	R1070T
812.74	0.683	1466494	REC_WORD	1.328	n/a	UNA	-999	5	[0, 0, 0]	n/a	0	0	0	n/a	n/a	0.0	0	0	0	FR2	0	R1070T
813.423	5.691	1467177	REC_WORD	2.011	n/a	PEZON	-999	5	[0, 0, 0]	n/a	0	0	0	n/a	n/a	0.0	0	0	0	FR2	0	R1070T
819.114	6.22	1472868	REC_WORD	7.702	n/a	CAMPO	-999	5	[0, 0, 0]	n/a	0	0	0	n/a	n/a	0.0	0	0	0	FR2	0	R1070T
825.334	11.393	1479088	REC_WORD	13.922	n/a	INTRUSION	-999	5	[0, 0, 0]	n/a	0	0	0	n/a	n/a	0.0	0	0	0	FR2	0	R1070T
836.727	4.699	1490480	REC_WORD	25.315	n/a	CAMIONETA	-999	5	[0, 0, 0]	n/a	0	0	0	n/a	n/a	0.0	0	0	0	FR2	0	R1070T
841.426	21.294	1495179	REC_END	n/a	n/a	n/a	-999	5	[0, 0, 0]	n/a	0	0	0	n/a	n/a	0.0	0	0	0	FR2	0	R1070T
862.72	0.0	1516472	TRIAL	n/a	n/a	n/a	-999	6	[0, 0, 0]	n/a	0	1	0	n/a	n/a	0.0	0	0	0	FR2	0	R1070T
862.72	10.0	1516472	COUNTDOWN_START	n/a	n/a	n/a	-999	6	[0, 0, 0]	n/a	0	1	0	n/a	n/a	0.0	0	0	0	FR2	0	R1070T
873.148	0.008	1526899	COUNTDOWN_END	n/a	n/a	n/a	-999	6	[0, 0, 0]	n/a	0	1	0	n/a	n/a	0.0	0	0	0	FR2	0	R1070T
873.156	1.6	1526907	ORIENT	n/a	n/a	n/a	-999	6	[0, 0, 0]	n/a	0	1	0	n/a	n/a	0.0	0	0	0	FR2	0	R1070T
875.639	1.6	1529390	WORD	n/a	wordpools/wordpool_SP.txt	CARPA	1	6	[0, 0, 0]	n/a	0	1	0	n/a	n/a	0.0	0	0	0	FR2	0	R1070T
878.074	1.6	1531825	WORD	n/a	wordpools/wordpool_SP.txt	SONRISA	2	6	[0, 0, 0]	n/a	0	1	0	n/a	n/a	0.0	0	0	0	FR2	0	R1070T
880.477	4.6	1534228	STIM_ON	n/a	n/a	n/a	-999	6	[0, 0, 0]	n/a	1	1	4600	RB2	RB3	500.0	50	230	300	FR2	0	R1070T
880.69	1.6	1534441	WORD	n/a	wordpools/wordpool_SP.txt	GALLINA	3	6	[0, 0, 0]	n/a	1	1	4600	RB2	RB3	500.0	50	230	300	FR2	0	R1070T
883.108	1.6	1536859	WORD	n/a	wordpools/wordpool_SP.txt	PIERNA	4	6	[0, 0, 0]	n/a	1	1	4600	RB2	RB3	500.0	50	230	300	FR2	0	R1070T
885.691	1.6	1539442	WORD	n/a	wordpools/wordpool_SP.txt	CARA	5	6	[0, 0, 0]	n/a	0	1	0	n/a	n/a	0.0	0	0	0	FR2	0	R1070T
888.142	1.6	1541892	WORD	n/a	wordpools/wordpool_SP.txt	JET	6	6	[0, 0, 0]	n/a	0	1	0	n/a	n/a	0.0	0	0	0	FR2	0	R1070T
890.398	4.6	1544148	STIM_ON	n/a	n/a	n/a	-999	6	[0, 0, 0]	n/a	1	1	4600	RB2	RB3	500.0	50	230	300	FR2	0	R1070T
890.608	1.6	1544358	WORD	n/a	wordpools/wordpool_SP.txt	LADRILLO	7	6	[0, 0, 0]	n/a	1	1	4600	RB2	RB3	500.0	50	230	300	FR2	0	R1070T
893.093	1.6	1546843	WORD	n/a	wordpools/wordpool_SP.txt	HIERBA	8	6	[0, 0, 0]	n/a	1	1	4600	RB2	RB3	500.0	50	230	300	FR2	0	R1070T
895.643	1.6	1549393	WORD	n/a	wordpools/wordpool_SP.txt	BRAZO	9	6	[0, 0, 0]	n/a	0	1	0	n/a	n/a	0.0	0	0	0	FR2	0	R1070T
898.211	1.6	1551961	WORD	n/a	wordpools/wordpool_SP.txt	TABURETE	10	6	[0, 0, 0]	n/a	0	1	0	n/a	n/a	0.0	0	0	0	FR2	0	R1070T
900.419	4.6	1554169	STIM_ON	n/a	n/a	n/a	-999	6	[0, 0, 0]	n/a	1	1	4600	RB2	RB3	500.0	50	230	300	FR2	0	R1070T
900.627	1.6	1554377	WORD	n/a	wordpools/wordpool_SP.txt	FLAUTA	11	6	[0, 0, 0]	n/a	1	1	4600	RB2	RB3	500.0	50	230	300	FR2	0	R1070T
903.011	1.6	1556761	WORD	n/a	wordpools/wordpool_SP.txt	PELICULA	12	6	[0, 0, 0]	n/a	1	1	4600	RB2	RB3	500.0	50	230	300	FR2	0	R1070T
904.628	0.0	1558378	DISTRACT_START	n/a	n/a	n/a	-999	6	[0, 0, 0]	n/a	1	1	4600	RB2	RB3	500.0	50	230	300	FR2	0	R1070T
904.628	0.016	1558378	START	n/a	n/a	n/a	-999	6	[-999, -999, -999]	n/a	0	1	0	n/a	n/a	0.0	0	0	0	FR2	0	R1070T
904.644	7.503	1558394	PROB	7.482	n/a	n/a	-999	6	[2, 6, 4]	12	0	1	0	n/a	n/a	0.0	0	0	0	FR2	0	R1070T
912.147	6.334	1565896	PROB	6.299	n/a	n/a	-999	6	[3, 7, 9]	19	0	1	0	n/a	n/a	0.0	0	0	0	FR2	0	R1070T
918.481	6.001	1572230	PROB	5.981	n/a	n/a	-999	6	[9, 5, 2]	16	0	1	0	n/a	n/a	0.0	0	0	0	FR2	0	R1070T
924.482	7.139	1578231	PROB	7.139	n/a	n/a	-999	6	[8, 6, 6]	22	0	1	0	n/a	n/a	0.0	0	0	0	FR2	0	R1070T
931.621	0.012	1585369	STOP	n/a	n/a	n/a	-999	6	[-999, -999, -999]	n/a	0	1	0	n/a	n/a	0.0	0	0	0	FR2	0	R1070T
931.633	1.167	1585381	DISTRACT_END	n/a	n/a	n/a	-999	6	[0, 0, 0]	n/a	0	1	0	n/a	n/a	0.0	0	0	0	FR2	0	R1070T
932.8	2.479	1586548	REC_START	n/a	n/a	n/a	-999	6	[0, 0, 0]	n/a	0	1	0	n/a	n/a	0.0	0	0	0	FR2	0	R1070T
935.279	3.314	1589027	REC_WORD	2.479	n/a	BRAZO	-999	6	[0, 0, 0]	n/a	0	1	0	n/a	n/a	0.0	0	0	0	FR2	0	R1070T
938.593	13.668	1592341	REC_WORD	5.793	n/a	LADRILLO	-999	6	[0, 0, 0]	n/a	0	1	0	n/a	n/a	0.0	0	0	0	FR2	0	R1070T
952.261	10.549	1606008	REC_WORD	19.461	n/a	PATIO	-999	6	[0, 0, 0]	n/a	0	1	0	n/a	n/a	0.0	0	0	0	FR2	0	R1070T
962.81	4.862	1616557	REC_END	n/a	n/a	n/a	-999	6	[0, 0, 0]	n/a	0	1	0	n/a	n/a	0.0	0	0	0	FR2	0	R1070T
967.672	10.0	1621419	COUNTDOWN_START	n/a	n/a	n/a	-999	7	[0, 0, 0]	n/a	0	1	0	n/a	n/a	0.0	0	0	0	FR2	0	R1070T
967.673	10.427	1621420	TRIAL	n/a	n/a	n/a	-999	7	[0, 0, 0]	n/a	0	1	0	n/a	n/a	0.0	0	0	0	FR2	0	R1070T
978.1	0.009	1631846	COUNTDOWN_END	n/a	n/a	n/a	-999	7	[0, 0, 0]	n/a	0	1	0	n/a	n/a	0.0	0	0	0	FR2	0	R1070T
978.109	1.6	1631855	ORIENT	n/a	n/a	n/a	-999	7	[0, 0, 0]	n/a	0	1	0	n/a	n/a	0.0	0	0	0	FR2	0	R1070T
980.47	4.6	1634216	STIM_ON	n/a	n/a	n/a	-999	7	[0, 0, 0]	n/a	1	1	4600	RB2	RB3	500.0	50	230	300	FR2	0	R1070T
980.675	1.6	1634421	WORD	n/a	wordpools/wordpool_SP.txt	TRAPO	1	7	[0, 0, 0]	n/a	1	1	4600	RB2	RB3	500.0	50	230	300	FR2	0	R1070T
983.143	1.6	1636889	WORD	n/a	wordpools/wordpool_SP.txt	LAGO	2	7	[0, 0, 0]	n/a	1	1	4600	RB2	RB3	500.0	50	230	300	FR2	0	R1070T
985.626	1.6	1639372	WORD	n/a	wordpools/wordpool_SP.txt	PAPALOTE	3	7	[0, 0, 0]	n/a	0	1	0	n/a	n/a	0.0	0	0	0	FR2	0	R1070T
988.244	1.6	1641990	WORD	n/a	wordpools/wordpool_SP.txt	RATON	4	7	[0, 0, 0]	n/a	0	1	0	n/a	n/a	0.0	0	0	0	FR2	0	R1070T
990.523	4.6	1644268	STIM_ON	n/a	n/a	n/a	-999	7	[0, 0, 0]	n/a	1	1	4600	RB2	RB3	500.0	50	230	300	FR2	0	R1070T
990.727	1.6	1644472	WORD	n/a	wordpools/wordpool_SP.txt	NIEVE	5	7	[0, 0, 0]	n/a	1	1	4600	RB2	RB3	500.0	50	230	300	FR2	0	R1070T
993.128	1.6	1646873	WORD	n/a	wordpools/wordpool_SP.txt	MULA	6	7	[0, 0, 0]	n/a	1	1	4600	RB2	RB3	500.0	50	230	300	FR2	0	R1070T
995.561	1.6	1649306	WORD	n/a	wordpools/wordpool_SP.txt	JEEP	7	7	[0, 0, 0]	n/a	0	1	0	n/a	n/a	0.0	0	0	0	FR2	0	R1070T
997.995	1.6	1651740	WORD	n/a	wordpools/wordpool_SP.txt	MUELLE	8	7	[0, 0, 0]	n/a	0	1	0	n/a	n/a	0.0	0	0	0	FR2	0	R1070T
1000.215	4.6	1653960	STIM_ON	n/a	n/a	n/a	-999	7	[0, 0, 0]	n/a	1	1	4600	RB2	RB3	500.0	50	230	300	FR2	0	R1070T
1000.43	1.6	1654175	WORD	n/a	wordpools/wordpool_SP.txt	ESCRITORIO	9	7	[0, 0, 0]	n/a	1	1	4600	RB2	RB3	500.0	50	230	300	FR2	0	R1070T
1002.829	1.6	1656574	WORD	n/a	wordpools/wordpool_SP.txt	ESTRELLA	10	7	[0, 0, 0]	n/a	1	1	4600	RB2	RB3	500.0	50	230	300	FR2	0	R1070T
1005.397	1.6	1659142	WORD	n/a	wordpools/wordpool_SP.txt	CATRE	11	7	[0, 0, 0]	n/a	0	1	0	n/a	n/a	0.0	0	0	0	FR2	0	R1070T
1007.797	1.6	1661542	WORD	n/a	wordpools/wordpool_SP.txt	BOTA	12	7	[0, 0, 0]	n/a	0	1	0	n/a	n/a	0.0	0	0	0	FR2	0	R1070T
1009.414	0.001	1663159	DISTRACT_START	n/a	n/a	n/a	-999	7	[0, 0, 0]	n/a	0	1	0	n/a	n/a	0.0	0	0	0	FR2	0	R1070T
1009.415	0.016	1663160	START	n/a	n/a	n/a	-999	7	[-999, -999, -999]	n/a	0	1	0	n/a	n/a	0.0	0	0	0	FR2	0	R1070T
1009.431	7.051	1663176	PROB	7.031	n/a	n/a	-999	7	[7, 4, 4]	16	0	1	0	n/a	n/a	0.0	0	0	0	FR2	0	R1070T
1016.482	5.184	1670226	PROB	5.155	n/a	n/a	-999	7	[2, 9, 9]	20	0	1	0	n/a	n/a	0.0	0	0	0	FR2	0	R1070T
1021.666	9.139	1675410	PROB	9.139	n/a	n/a	-999	7	[6, 4, 5]	15	0	1	0	n/a	n/a	0.0	0	0	0	FR2	0	R1070T
1030.805	0.012	1684548	STOP	n/a	n/a	n/a	-999	7	[-999, -999, -999]	n/a	0	1	0	n/a	n/a	0.0	0	0	0	FR2	0	R1070T
1030.817	1.201	1684560	DISTRACT_END	n/a	n/a	n/a	-999	7	[0, 0, 0]	n/a	0	1	0	n/a	n/a	0.0	0	0	0	FR2	0	R1070T
1032.018	1.16	1685761	REC_START	n/a	n/a	n/a	-999	7	[0, 0, 0]	n/a	0	1	0	n/a	n/a	0.0	0	0	0	FR2	0	R1070T
1033.178	1.282	1686921	REC_WORD	1.16	n/a	MULA	-999	7	[0, 0, 0]	n/a	0	1	0	n/a	n/a	0.0	0	0	0	FR2	0	R1070T
1034.46	1.081	1688203	REC_WORD	2.442	n/a	NIEVE	-999	7	[0, 0, 0]	n/a	0	1	0	n/a	n/a	0.0	0	0	0	FR2	0	R1070T
1035.541	3.808	1689284	REC_WORD	3.523	n/a	ESTRELLA	-999	7	[0, 0, 0]	n/a	0	1	0	n/a	n/a	0.0	0	0	0	FR2	0	R1070T
1039.349	6.079	1693092	REC_WORD	7.331	n/a	RATON	-999	7	[0, 0, 0]	n/a	0	1	0	n/a	n/a	0.0	0	0	0	FR2	0	R1070T
1045.428	16.6	1699171	REC_WORD	13.41	n/a	BOTA	-999	7	[0, 0, 0]	n/a	0	1	0	n/a	n/a	0.0	0	0	0	FR2	0	R1070T
1062.028	2.779	1715770	REC_END	n/a	n/a	n/a	-999	7	[0, 0, 0]	n/a	0	1	0	n/a	n/a	0.0	0	0	0	FR2	0	R1070T
1064.807	0.0	1718549	TRIAL	n/a	n/a	n/a	-999	8	[0, 0, 0]	n/a	0	1	0	n/a	n/a	0.0	0	0	0	FR2	0	R1070T
1064.807	10.0	1718549	COUNTDOWN_START	n/a	n/a	n/a	-999	8	[0, 0, 0]	n/a	0	1	0	n/a	n/a	0.0	0	0	0	FR2	0	R1070T
1075.235	0.008	1728976	COUNTDOWN_END	n/a	n/a	n/a	-999	8	[0, 0, 0]	n/a	0	1	0	n/a	n/a	0.0	0	0	0	FR2	0	R1070T
1075.243	1.6	1728984	ORIENT	n/a	n/a	n/a	-999	8	[0, 0, 0]	n/a	0	1	0	n/a	n/a	0.0	0	0	0	FR2	0	R1070T
1077.479	4.6	1731220	STIM_ON	n/a	n/a	n/a	-999	8	[0, 0, 0]	n/a	1	1	4600	RB2	RB3	500.0	50	230	300	FR2	0	R1070T
1077.693	1.6	1731434	WORD	n/a	wordpools/wordpool_SP.txt	CORONA	1	8	[0, 0, 0]	n/a	1	1	4600	RB2	RB3	500.0	50	230	300	FR2	0	R1070T
1080.244	1.6	1733985	WORD	n/a	wordpools/wordpool_SP.txt	TOSTADA	2	8	[0, 0, 0]	n/a	1	1	4600	RB2	RB3	500.0	50	230	300	FR2	0	R1070T
1082.76	1.6	1736501	WORD	n/a	wordpools/wordpool_SP.txt	LABIO	3	8	[0, 0, 0]	n/a	0	1	0	n/a	n/a	0.0	0	0	0	FR2	0	R1070T
1085.145	1.6	1738886	WORD	n/a	wordpools/wordpool_SP.txt	ORO	4	8	[0, 0, 0]	n/a	0	1	0	n/a	n/a	0.0	0	0	0	FR2	0	R1070T
1087.538	4.6	1741279	STIM_ON	n/a	n/a	n/a	-999	8	[0, 0, 0]	n/a	1	1	4600	RB2	RB3	500.0	50	230	300	FR2	0	R1070T
1087.744	1.6	1741485	WORD	n/a	wordpools/wordpool_SP.txt	BOLSA	5	8	[0, 0, 0]	n/a	1	1	4600	RB2	RB3	500.0	50	230	300	FR2	0	R1070T
1090.229	1.6	1743970	WORD	n/a	wordpools/wordpool_SP.txt	PLATO	6	8	[0, 0, 0]	n/a	1	1	4600	RB2	RB3	500.0	50	230	300	FR2	0	R1070T
1092.845	1.6	1746585	WORD	n/a	wordpools/wordpool_SP.txt	BASTON	7	8	[0, 0, 0]	n/a	0	1	0	n/a	n/a	0.0	0	0	0	FR2	0	R1070T
1095.397	1.6	1749137	WORD	n/a	wordpools/wordpool_SP.txt	RANA	8	8	[0, 0, 0]	n/a	0	1	0	n/a	n/a	0.0	0	0	0	FR2	0	R1070T
1097.745	4.6	1751485	STIM_ON	n/a	n/a	n/a	-999	8	[0, 0, 0]	n/a	1	1	4600	RB2	RB3	500.0	50	230	300	FR2	0	R1070T
1097.963	1.6	1751703	WORD	n/a	wordpools/wordpool_SP.txt	FLORECER	9	8	[0, 0, 0]	n/a	1	1	4600	RB2	RB3	500.0	50	230	300	FR2	0	R1070T
1100.414	1.6	1754154	WORD	n/a	wordpools/wordpool_SP.txt	CANDADO	10	8	[0, 0, 0]	n/a	1	1	4600	RB2	RB3	500.0	50	230	300	FR2	0	R1070T
1102.98	1.6	1756720	WORD	n/a	wordpools/wordpool_SP.txt	POZO	11	8	[0, 0, 0]	n/a	0	1	0	n/a	n/a	0.0	0	0	0	FR2	0	R1070T
1105.564	1.6	1759304	WORD	n/a	wordpools/wordpool_SP.txt	POLO	12	8	[0, 0, 0]	n/a	0	1	0	n/a	n/a	0.0	0	0	0	FR2	0	R1070T
1107.182	0.001	1760922	DISTRACT_START	n/a	n/a	n/a	-999	8	[0, 0, 0]	n/a	0	1	0	n/a	n/a	0.0	0	0	0	FR2	0	R1070T
1107.183	0.016	1760923	START	n/a	n/a	n/a	-999	8	[-999, -999, -999]	n/a	0	1	0	n/a	n/a	0.0	0	0	0	FR2	0	R1070T
1107.199	3.333	1760939	PROB	3.303	n/a	n/a	-999	8	[1, 4, 4]	5	0	1	0	n/a	n/a	0.0	0	0	0	FR2	0	R1070T
1110.532	5.084	1764272	PROB	5.049	n/a	n/a	-999	8	[6, 4, 3]	13	0	1	0	n/a	n/a	0.0	0	0	0	FR2	0	R1070T
1115.616	4.934	1769355	PROB	4.909	n/a	n/a	-999	8	[8, 4, 1]	13	0	1	0	n/a	n/a	0.0	0	0	0	FR2	0	R1070T
1120.55	6.744	1774289	PROB	6.744	n/a	n/a	-999	8	[7, 4, 7]	13	0	1	0	n/a	n/a	0.0	0	0	0	FR2	0	R1070T
1127.294	0.009	1781033	STOP	n/a	n/a	n/a	-999	8	[-999, -999, -999]	n/a	0	1	0	n/a	n/a	0.0	0	0	0	FR2	0	R1070T
1127.303	1.101	1781042	DISTRACT_END	n/a	n/a	n/a	-999	8	[0, 0, 0]	n/a	0	1	0	n/a	n/a	0.0	0	0	0	FR2	0	R1070T
1128.404	1.556	1782143	REC_START	n/a	n/a	n/a	-999	8	[0, 0, 0]	n/a	0	1	0	n/a	n/a	0.0	0	0	0	FR2	0	R1070T
1129.96	1.76	1783699	REC_WORD	1.556	n/a	CORONA	-999	8	[0, 0, 0]	n/a	0	1	0	n/a	n/a	0.0	0	0	0	FR2	0	R1070T
1131.72	11.097	1785459	REC_WORD	3.316	n/a	ORO	-999	8	[0, 0, 0]	n/a	0	1	0	n/a	n/a	0.0	0	0	0	FR2	0	R1070T
1142.817	15.597	1796555	REC_WORD	14.413	n/a	RATON	-999	8	[0, 0, 0]	n/a	0	1	0	n/a	n/a	0.0	0	0	0	FR2	0	R1070T
1158.414	2.911	1812151	REC_END	n/a	n/a	n/a	-999	8	[0, 0, 0]	n/a	0	1	0	n/a	n/a	0.0	0	0	0	FR2	0	R1070T
1161.325	10.0	1815062	COUNTDOWN_START	n/a	n/a	n/a	-999	9	[0, 0, 0]	n/a	0	1	0	n/a	n/a	0.0	0	0	0	FR2	0	R1070T
1161.326	10.427	1815063	TRIAL	n/a	n/a	n/a	-999	9	[0, 0, 0]	n/a	0	1	0	n/a	n/a	0.0	0	0	0	FR2	0	R1070T
1171.753	0.007	1825490	COUNTDOWN_END	n/a	n/a	n/a	-999	9	[0, 0, 0]	n/a	0	1	0	n/a	n/a	0.0	0	0	0	FR2	0	R1070T
1171.76	1.6	1825497	ORIENT	n/a	n/a	n/a	-999	9	[0, 0, 0]	n/a	0	1	0	n/a	n/a	0.0	0	0	0	FR2	0	R1070T
1174.244	1.6	1827980	WORD	n/a	wordpools/wordpool_SP.txt	BUHO	1	9	[0, 0, 0]	n/a	0	1	0	n/a	n/a	0.0	0	0	0	FR2	0	R1070T
1176.844	1.6	1830580	WORD	n/a	wordpools/wordpool_SP.txt	FREGADERO	2	9	[0, 0, 0]	n/a	0	1	0	n/a	n/a	0.0	0	0	0	FR2	0	R1070T
1179.087	4.6	1832823	STIM_ON	n/a	n/a	n/a	-999	9	[0, 0, 0]	n/a	1	1	4600	RB2	RB3	500.0	50	230	300	FR2	0	R1070T
1179.295	1.6	1833031	WORD	n/a	wordpools/wordpool_SP.txt	BANCA	3	9	[0, 0, 0]	n/a	1	1	4600	RB2	RB3	500.0	50	230	300	FR2	0	R1070T
1181.928	1.6	1835664	WORD	n/a	wordpools/wordpool_SP.txt	NIDO	4	9	[0, 0, 0]	n/a	1	1	4600	RB2	RB3	500.0	50	230	300	FR2	0	R1070T
1184.346	1.6	1838082	WORD	n/a	wordpools/wordpool_SP.txt	TE	5	9	[0, 0, 0]	n/a	0	1	0	n/a	n/a	0.0	0	0	0	FR2	0	R1070T
1186.762	1.6	1840498	WORD	n/a	wordpools/wordpool_SP.txt	BOTE	6	9	[0, 0, 0]	n/a	0	1	0	n/a	n/a	0.0	0	0	0	FR2	0	R1070T
1189.111	4.6	1842847	STIM_ON	n/a	n/a	n/a	-999	9	[0, 0, 0]	n/a	1	1	4600	RB2	RB3	500.0	50	230	300	FR2	0	R1070T
1189.314	1.6	1843050	WORD	n/a	wordpools/wordpool_SP.txt	HORMIGA	7	9	[0, 0, 0]	n/a	1	1	4600	RB2	RB3	500.0	50	230	300	FR2	0	R1070T
1191.763	1.6	1845499	WORD	n/a	wordpools/wordpool_SP.txt	ELFO	8	9	[0, 0, 0]	n/a	1	1	4600	RB2	RB3	500.0	50	230	300	FR2	0	R1070T
1194.215	1.6	1847950	WORD	n/a	wordpools/wordpool_SP.txt	OLA	9	9	[0, 0, 0]	n/a	0	1	0	n/a	n/a	0.0	0	0	0	FR2	0	R1070T
1196.798	1.6	1850533	WORD	n/a	wordpools/wordpool_SP.txt	NARIZ	10	9	[0, 0, 0]	n/a	0	1	0	n/a	n/a	0.0	0	0	0	FR2	0	R1070T
1199.059	4.6	1852794	STIM_ON	n/a	n/a	n/a	-999	9	[0, 0, 0]	n/a	1	1	4600	RB2	RB3	500.0	50	230	300	FR2	0	R1070T
1199.266	1.6	1853001	WORD	n/a	wordpools/wordpool_SP.txt	BASURA	11	9	[0, 0, 0]	n/a	1	1	4600	RB2	RB3	500.0	50	230	300	FR2	0	R1070T
1201.732	1.6	1855467	WORD	n/a	wordpools/wordpool_SP.txt	NIEBLA	12	9	[0, 0, 0]	n/a	1	1	4600	RB2	RB3	500.0	50	230	300	FR2	0	R1070T
1203.35	0.001	1857085	DISTRACT_START	n/a	n/a	n/a	-999	9	[0, 0, 0]	n/a	1	1	4600	RB2	RB3	500.0	50	230	300	FR2	0	R1070T
1203.351	0.015	1857086	START	n/a	n/a	n/a	-999	9	[-999, -999, -999]	n/a	0	1	0	n/a	n/a	0.0	0	0	0	FR2	0	R1070T
1203.366	8.318	1857101	PROB	8.287	n/a	n/a	-999	9	[7, 8, 5]	20	0	1	0	n/a	n/a	0.0	0	0	0	FR2	0	R1070T
1211.684	3.684	1865419	PROB	3.65	n/a	n/a	-999	9	[2, 1, 1]	4	0	1	0	n/a	n/a	0.0	0	0	0	FR2	0	R1070T
1215.368	4.968	1869102	PROB	4.942	n/a	n/a	-999	9	[1, 5, 8]	14	0	1	0	n/a	n/a	0.0	0	0	0	FR2	0	R1070T
1220.336	7.87	1874070	PROB	7.87	n/a	n/a	-999	9	[8, 3, 6]	17	0	1	0	n/a	n/a	0.0	0	0	0	FR2	0	R1070T
1228.206	0.015	1881940	STOP	n/a	n/a	n/a	-999	9	[-999, -999, -999]	n/a	0	1	0	n/a	n/a	0.0	0	0	0	FR2	0	R1070T
1228.221	1.185	1881955	DISTRACT_END	n/a	n/a	n/a	-999	9	[0, 0, 0]	n/a	0	1	0	n/a	n/a	0.0	0	0	0	FR2	0	R1070T
1229.406	1.011	1883140	REC_START	n/a	n/a	n/a	-999	9	[0, 0, 0]	n/a	0	1	0	n/a	n/a	0.0	0	0	0	FR2	0	R1070T
1230.417	1.921	1884151	REC_WORD	1.011	n/a	BANCA	-999	9	[0, 0, 0]	n/a	0	1	0	n/a	n/a	0.0	0	0	0	FR2	0	R1070T
1232.338	27.076	1886072	REC_WORD	2.932	n/a	NARIZ	-999	9	[0, 0, 0]	n/a	0	1	0	n/a	n/a	0.0	0	0	0	FR2	0	R1070T
1259.414	2.813	1913146	REC_END	n/a	n/a	n/a	-999	9	[0, 0, 0]	n/a	0	1	0	n/a	n/a	0.0	0	0	0	FR2	0	R1070T
1262.227	0.0	1915959	TRIAL	n/a	n/a	n/a	-999	10	[0, 0, 0]	n/a	0	1	0	n/a	n/a	0.0	0	0	0	FR2	0	R1070T
1262.227	10.0	1915959	COUNTDOWN_START	n/a	n/a	n/a	-999	10	[0, 0, 0]	n/a	0	1	0	n/a	n/a	0.0	0	0	0	FR2	0	R1070T
1272.655	0.006	1926387	COUNTDOWN_END	n/a	n/a	n/a	-999	10	[0, 0, 0]	n/a	0	1	0	n/a	n/a	0.0	0	0	0	FR2	0	R1070T
1272.661	1.6	1926393	ORIENT	n/a	n/a	n/a	-999	10	[0, 0, 0]	n/a	0	1	0	n/a	n/a	0.0	0	0	0	FR2	0	R1070T
1275.096	1.6	1928827	WORD	n/a	wordpools/wordpool_SP.txt	CAMISA	1	10	[0, 0, 0]	n/a	0	1	0	n/a	n/a	0.0	0	0	0	FR2	0	R1070T
1277.529	1.6	1931260	WORD	n/a	wordpools/wordpool_SP.txt	CAMION	2	10	[0, 0, 0]	n/a	0	1	0	n/a	n/a	0.0	0	0	0	FR2	0	R1070T
1279.878	4.6	1933609	STIM_ON	n/a	n/a	n/a	-999	10	[0, 0, 0]	n/a	1	1	4600	RB2	RB3	500.0	50	230	300	FR2	0	R1070T
1280.08	1.6	1933811	WORD	n/a	wordpools/wordpool_SP.txt	PERLA	3	10	[0, 0, 0]	n/a	1	1	4600	RB2	RB3	500.0	50	230	300	FR2	0	R1070T
1282.546	1.6	1936277	WORD	n/a	wordpools/wordpool_SP.txt	TIBURON	4	10	[0, 0, 0]	n/a	1	1	4600	RB2	RB3	500.0	50	230	300	FR2	0	R1070T
1285.03	1.6	1938761	WORD	n/a	wordpools/wordpool_SP.txt	PISO	5	10	[0, 0, 0]	n/a	0	1	0	n/a	n/a	0.0	0	0	0	FR2	0	R1070T
1287.498	1.6	1941229	WORD	n/a	wordpools/wordpool_SP.txt	ESTUFA	6	10	[0, 0, 0]	n/a	0	1	0	n/a	n/a	0.0	0	0	0	FR2	0	R1070T
1289.829	4.6	1943560	STIM_ON	n/a	n/a	n/a	-999	10	[0, 0, 0]	n/a	1	1	4600	RB2	RB3	500.0	50	230	300	FR2	0	R1070T
1290.031	1.6	1943762	WORD	n/a	wordpools/wordpool_SP.txt	TREN	7	10	[0, 0, 0]	n/a	1	1	4600	RB2	RB3	500.0	50	230	300	FR2	0	R1070T
1292.499	1.6	1946230	WORD	n/a	wordpools/wordpool_SP.txt	PRIMAVERA	8	10	[0, 0, 0]	n/a	1	1	4600	RB2	RB3	500.0	50	230	300	FR2	0	R1070T
1295.1	1.6	1948831	WORD	n/a	wordpools/wordpool_SP.txt	CAPA	9	10	[0, 0, 0]	n/a	0	1	0	n/a	n/a	0.0	0	0	0	FR2	0	R1070T
1297.484	1.6	1951214	WORD	n/a	wordpools/wordpool_SP.txt	DURAZNO	10	10	[0, 0, 0]	n/a	0	1	0	n/a	n/a	0.0	0	0	0	FR2	0	R1070T
1299.662	4.6	1953392	STIM_ON	n/a	n/a	n/a	-999	10	[0, 0, 0]	n/a	1	1	4600	RB2	RB3	500.0	50	230	300	FR2	0	R1070T
1299.866	1.6	1953596	WORD	n/a	wordpools/wordpool_SP.txt	TAZA	11	10	[0, 0, 0]	n/a	1	1	4600	RB2	RB3	500.0	50	230	300	FR2	0	R1070T
1302.351	1.6	1956081	WORD	n/a	wordpools/wordpool_SP.txt	SOMBRERO	12	10	[0, 0, 0]	n/a	1	1	4600	RB2	RB3	500.0	50	230	300	FR2	0	R1070T
1303.967	0.001	1957697	DISTRACT_START	n/a	n/a	n/a	-999	10	[0, 0, 0]	n/a	1	1	4600	RB2	RB3	500.0	50	230	300	FR2	0	R1070T
1303.968	0.016	1957698	START	n/a	n/a	n/a	-999	10	[-999, -999, -999]	n/a	0	1	0	n/a	n/a	0.0	0	0	0	FR2	0	R1070T
1303.984	9.102	1957714	PROB	9.069	n/a	n/a	-999	10	[7, 6, 5]	18	0	1	0	n/a	n/a	0.0	0	0	0	FR2	0	R1070T
1313.086	6.45	1966816	PROB	6.416	n/a	n/a	-999	10	[7, 4, 2]	13	0	1	0	n/a	n/a	0.0	0	0	0	FR2	0	R1070T
1319.536	3.485	1973265	PROB	3.453	n/a	n/a	-999	10	[3, 5, 5]	13	0	1	0	n/a	n/a	0.0	0	0	0	FR2	0	R1070T
1323.021	6.145	1976750	PROB	6.145	n/a	n/a	-999	10	[3, 9, 7]	19	0	1	0	n/a	n/a	0.0	0	0	0	FR2	0	R1070T
1329.166	0.023	1982895	STOP	n/a	n/a	n/a	-999	10	[-999, -999, -999]	n/a	0	1	0	n/a	n/a	0.0	0	0	0	FR2	0	R1070T
1329.189	1.201	1982918	DISTRACT_END	n/a	n/a	n/a	-999	10	[0, 0, 0]	n/a	0	1	0	n/a	n/a	0.0	0	0	0	FR2	0	R1070T
1330.39	0.834	1984119	REC_START	n/a	n/a	n/a	-999	10	[0, 0, 0]	n/a	0	1	0	n/a	n/a	0.0	0	0	0	FR2	0	R1070T
1331.224	3.705	1984953	REC_WORD	0.834	n/a	CAMISA	-999	10	[0, 0, 0]	n/a	0	1	0	n/a	n/a	0.0	0	0	0	FR2	0	R1070T
1334.929	25.47	1988658	REC_WORD	4.539	n/a	INTRUSION	-999	10	[0, 0, 0]	n/a	0	1	0	n/a	n/a	0.0	0	0	0	FR2	0	R1070T
1360.399	3.113	2014126	REC_END	n/a	n/a	n/a	-999	10	[0, 0, 0]	n/a	0	1	0	n/a	n/a	0.0	0	0	0	FR2	0	R1070T
1363.512	0.0	2017239	TRIAL	n/a	n/a	n/a	-999	11	[0, 0, 0]	n/a	0	1	0	n/a	n/a	0.0	0	0	0	FR2	0	R1070T
1363.512	10.0	2017239	COUNTDOWN_START	n/a	n/a	n/a	-999	11	[0, 0, 0]	n/a	0	1	0	n/a	n/a	0.0	0	0	0	FR2	0	R1070T
1373.94	0.006	2027667	COUNTDOWN_END	n/a	n/a	n/a	-999	11	[0, 0, 0]	n/a	0	1	0	n/a	n/a	0.0	0	0	0	FR2	0	R1070T
1373.946	1.6	2027673	ORIENT	n/a	n/a	n/a	-999	11	[0, 0, 0]	n/a	0	1	0	n/a	n/a	0.0	0	0	0	FR2	0	R1070T
1376.263	4.6	2029990	STIM_ON	n/a	n/a	n/a	-999	11	[0, 0, 0]	n/a	1	1	4600	RB2	RB3	500.0	50	230	300	FR2	0	R1070T
1376.464	1.6	2030191	WORD	n/a	wordpools/wordpool_SP.txt	SAPO	1	11	[0, 0, 0]	n/a	1	1	4600	RB2	RB3	500.0	50	230	300	FR2	0	R1070T
1378.881	1.6	2032607	WORD	n/a	wordpools/wordpool_SP.txt	GRANERO	2	11	[0, 0, 0]	n/a	1	1	4600	RB2	RB3	500.0	50	230	300	FR2	0	R1070T
1381.282	1.6	2035008	WORD	n/a	wordpools/wordpool_SP.txt	VENTILADOR	3	11	[0, 0, 0]	n/a	0	1	0	n/a	n/a	0.0	0	0	0	FR2	0	R1070T
1383.832	1.6	2037558	WORD	n/a	wordpools/wordpool_SP.txt	PISCINA	4	11	[0, 0, 0]	n/a	0	1	0	n/a	n/a	0.0	0	0	0	FR2	0	R1070T
1386.238	4.6	2039964	STIM_ON	n/a	n/a	n/a	-999	11	[0, 0, 0]	n/a	1	1	4600	RB2	RB3	500.0	50	230	300	FR2	0	R1070T
1386.45	1.6	2040176	WORD	n/a	wordpools/wordpool_SP.txt	VERJA	5	11	[0, 0, 0]	n/a	1	1	4600	RB2	RB3	500.0	50	230	300	FR2	0	R1070T
1389.067	1.6	2042793	WORD	n/a	wordpools/wordpool_SP.txt	CORDEL	6	11	[0, 0, 0]	n/a	1	1	4600	RB2	RB3	500.0	50	230	300	FR2	0	R1070T
1391.516	1.6	2045242	WORD	n/a	wordpools/wordpool_SP.txt	LAMPARA	7	11	[0, 0, 0]	n/a	0	1	0	n/a	n/a	0.0	0	0	0	FR2	0	R1070T
1393.983	1.6	2047709	WORD	n/a	wordpools/wordpool_SP.txt	PATIO	8	11	[0, 0, 0]	n/a	0	1	0	n/a	n/a	0.0	0	0	0	FR2	0	R1070T
1396.328	4.6	2050054	STIM_ON	n/a	n/a	n/a	-999	11	[0, 0, 0]	n/a	1	1	4600	RB2	RB3	500.0	50	230	300	FR2	0	R1070T
1396.534	1.6	2050260	WORD	n/a	wordpools/wordpool_SP.txt	HILO	9	11	[0, 0, 0]	n/a	1	1	4600	RB2	RB3	500.0	50	230	300	FR2	0	R1070T
1398.934	1.6	2052659	WORD	n/a	wordpools/wordpool_SP.txt	ROSA	10	11	[0, 0, 0]	n/a	1	1	4600	RB2	RB3	500.0	50	230	300	FR2	0	R1070T
1401.452	1.6	2055177	WORD	n/a	wordpools/wordpool_SP.txt	COLINA	11	11	[0, 0, 0]	n/a	0	1	0	n/a	n/a	0.0	0	0	0	FR2	0	R1070T
1403.902	1.6	2057627	WORD	n/a	wordpools/wordpool_SP.txt	BALLENA	12	11	[0, 0, 0]	n/a	0	1	0	n/a	n/a	0.0	0	0	0	FR2	0	R1070T
1405.519	0.001	2059244	DISTRACT_START	n/a	n/a	n/a	-999	11	[0, 0, 0]	n/a	0	1	0	n/a	n/a	0.0	0	0	0	FR2	0	R1070T
1405.52	0.016	2059245	START	n/a	n/a	n/a	-999	11	[-999, -999, -999]	n/a	0	1	0	n/a	n/a	0.0	0	0	0	FR2	0	R1070T
1405.536	6.868	2059261	PROB	6.838	n/a	n/a	-999	11	[6, 5, 5]	16	0	1	0	n/a	n/a	0.0	0	0	0	FR2	0	R1070T
1412.404	4.2	2066129	PROB	4.177	n/a	n/a	-999	11	[5, 1, 2]	8	0	1	0	n/a	n/a	0.0	0	0	0	FR2	0	R1070T
1416.604	11.273	2070329	PROB	11.273	n/a	n/a	-999	11	[4, 7, 8]	18	0	1	0	n/a	n/a	0.0	0	0	0	FR2	0	R1070T
1427.877	0.012	2081601	STOP	n/a	n/a	n/a	-999	11	[-999, -999, -999]	n/a	0	1	0	n/a	n/a	0.0	0	0	0	FR2	0	R1070T
1427.889	1.219	2081613	DISTRACT_END	n/a	n/a	n/a	-999	11	[0, 0, 0]	n/a	0	1	0	n/a	n/a	0.0	0	0	0	FR2	0	R1070T
1429.108	1.001	2082832	REC_START	n/a	n/a	n/a	-999	11	[0, 0, 0]	n/a	0	1	0	n/a	n/a	0.0	0	0	0	FR2	0	R1070T
1430.109	3.285	2083833	REC_WORD	1.001	n/a	SAPO	-999	11	[0, 0, 0]	n/a	0	1	0	n/a	n/a	0.0	0	0	0	FR2	0	R1070T
1433.394	25.724	2087118	REC_WORD	4.286	n/a	LAGO	-999	11	[0, 0, 0]	n/a	0	1	0	n/a	n/a	0.0	0	0	0	FR2	0	R1070T
1459.118	9.963	2112840	REC_END	n/a	n/a	n/a	-999	11	[0, 0, 0]	n/a	0	1	0	n/a	n/a	0.0	0	0	0	FR2	0	R1070T
1469.081	10.0	2122803	COUNTDOWN_START	n/a	n/a	n/a	-999	12	[0, 0, 0]	n/a	0	0	0	n/a	n/a	0.0	0	0	0	FR2	0	R1070T
1469.082	10.427	2122804	TRIAL	n/a	n/a	n/a	-999	12	[0, 0, 0]	n/a	0	0	0	n/a	n/a	0.0	0	0	0	FR2	0	R1070T
1479.509	0.007	2133230	COUNTDOWN_END	n/a	n/a	n/a	-999	12	[0, 0, 0]	n/a	0	0	0	n/a	n/a	0.0	0	0	0	FR2	0	R1070T
1479.516	1.6	2133237	ORIENT	n/a	n/a	n/a	-999	12	[0, 0, 0]	n/a	0	0	0	n/a	n/a	0.0	0	0	0	FR2	0	R1070T
1481.983	1.6	2135704	WORD	n/a	wordpools/wordpool_SP.txt	PERRO	1	12	[0, 0, 0]	n/a	0	0	0	n/a	n/a	0.0	0	0	0	FR2	0	R1070T
1484.533	1.6	2138254	WORD	n/a	wordpools/wordpool_SP.txt	MADERA	2	12	[0, 0, 0]	n/a	0	0	0	n/a	n/a	0.0	0	0	0	FR2	0	R1070T
1487.135	1.6	2140856	WORD	n/a	wordpools/wordpool_SP.txt	ANGUILA	3	12	[0, 0, 0]	n/a	0	0	0	n/a	n/a	0.0	0	0	0	FR2	0	R1070T
1489.751	1.6	2143472	WORD	n/a	wordpools/wordpool_SP.txt	ESPUMA	4	12	[0, 0, 0]	n/a	0	0	0	n/a	n/a	0.0	0	0	0	FR2	0	R1070T
1492.186	1.6	2145907	WORD	n/a	wordpools/wordpool_SP.txt	CORREO	5	12	[0, 0, 0]	n/a	0	0	0	n/a	n/a	0.0	0	0	0	FR2	0	R1070T
1494.652	1.6	2148373	WORD	n/a	wordpools/wordpool_SP.txt	LOBO	6	12	[0, 0, 0]	n/a	0	0	0	n/a	n/a	0.0	0	0	0	FR2	0	R1070T
1497.035	1.6	2150756	WORD	n/a	wordpools/wordpool_SP.txt	TERRENO	7	12	[0, 0, 0]	n/a	0	0	0	n/a	n/a	0.0	0	0	0	FR2	0	R1070T
1499.619	1.6	2153339	WORD	n/a	wordpools/wordpool_SP.txt	RUEDA	8	12	[0, 0, 0]	n/a	0	0	0	n/a	n/a	0.0	0	0	0	FR2	0	R1070T
1502.087	1.6	2155807	WORD	n/a	wordpools/wordpool_SP.txt	TIZA	9	12	[0, 0, 0]	n/a	0	0	0	n/a	n/a	0.0	0	0	0	FR2	0	R1070T
1504.537	1.6	2158257	WORD	n/a	wordpools/wordpool_SP.txt	COLA	10	12	[0, 0, 0]	n/a	0	0	0	n/a	n/a	0.0	0	0	0	FR2	0	R1070T
1506.937	1.6	2160657	WORD	n/a	wordpools/wordpool_SP.txt	SIGNO	11	12	[0, 0, 0]	n/a	0	0	0	n/a	n/a	0.0	0	0	0	FR2	0	R1070T
1509.322	1.6	2163042	WORD	n/a	wordpools/wordpool_SP.txt	TANQUE	12	12	[0, 0, 0]	n/a	0	0	0	n/a	n/a	0.0	0	0	0	FR2	0	R1070T
1510.938	0.001	2164658	DISTRACT_START	n/a	n/a	n/a	-999	12	[0, 0, 0]	n/a	0	0	0	n/a	n/a	0.0	0	0	0	FR2	0	R1070T
1510.939	0.016	2164659	START	n/a	n/a	n/a	-999	12	[-999, -999, -999]	n/a	0	0	0	n/a	n/a	0.0	0	0	0	FR2	0	R1070T
1510.955	9.951	2164675	PROB	9.93	n/a	n/a	-999	12	[6, 3, 5]	14	0	0	0	n/a	n/a	0.0	0	0	0	FR2	0	R1070T
1520.906	6.752	2174625	PROB	6.723	n/a	n/a	-999	12	[4, 2, 3]	9	0	0	0	n/a	n/a	0.0	0	0	0	FR2	0	R1070T
1527.658	5.516	2181377	PROB	5.516	n/a	n/a	-999	12	[8, 4, 4]	16	0	0	0	n/a	n/a	0.0	0	0	0	FR2	0	R1070T
1533.174	0.019	2186893	STOP	n/a	n/a	n/a	-999	12	[-999, -999, -999]	n/a	0	0	0	n/a	n/a	0.0	0	0	0	FR2	0	R1070T
1533.193	1.201	2186912	DISTRACT_END	n/a	n/a	n/a	-999	12	[0, 0, 0]	n/a	0	0	0	n/a	n/a	0.0	0	0	0	FR2	0	R1070T
1534.394	1.143	2188113	REC_START	n/a	n/a	n/a	-999	12	[0, 0, 0]	n/a	0	0	0	n/a	n/a	0.0	0	0	0	FR2	0	R1070T
1535.537	0.907	2189256	REC_WORD	1.143	n/a	PERRO	-999	12	[0, 0, 0]	n/a	0	0	0	n/a	n/a	0.0	0	0	0	FR2	0	R1070T
1536.444	1.65	2190163	REC_WORD	2.05	n/a	MADERA	-999	12	[0, 0, 0]	n/a	0	0	0	n/a	n/a	0.0	0	0	0	FR2	0	R1070T
1538.094	22.425	2191813	REC_WORD	3.7	n/a	COLA	-999	12	[0, 0, 0]	n/a	0	0	0	n/a	n/a	0.0	0	0	0	FR2	0	R1070T
1560.519	3.885	2214237	REC_WORD	26.125	n/a	RAMA	-999	12	[0, 0, 0]	n/a	0	0	0	n/a	n/a	0.0	0	0	0	FR2	0	R1070T
1564.404	9.179	2218121	REC_END	n/a	n/a	n/a	-999	12	[0, 0, 0]	n/a	0	0	0	n/a	n/a	0.0	0	0	0	FR2	0	R1070T
1573.583	0.0	2227300	TRIAL	n/a	n/a	n/a	-999	13	[0, 0, 0]	n/a	0	1	0	n/a	n/a	0.0	0	0	0	FR2	0	R1070T
1573.583	10.0	2227300	COUNTDOWN_START	n/a	n/a	n/a	-999	13	[0, 0, 0]	n/a	0	1	0	n/a	n/a	0.0	0	0	0	FR2	0	R1070T
1584.011	0.007	2237727	COUNTDOWN_END	n/a	n/a	n/a	-999	13	[0, 0, 0]	n/a	0	1	0	n/a	n/a	0.0	0	0	0	FR2	0	R1070T
1584.018	1.6	2237734	ORIENT	n/a	n/a	n/a	-999	13	[0, 0, 0]	n/a	0	1	0	n/a	n/a	0.0	0	0	0	FR2	0	R1070T
1586.236	4.6	2239952	STIM_ON	n/a	n/a	n/a	-999	13	[0, 0, 0]	n/a	1	1	4600	RB2	RB3	500.0	50	230	300	FR2	0	R1070T
1586.453	1.6	2240169	WORD	n/a	wordpools/wordpool_SP.txt	CARRO	1	13	[0, 0, 0]	n/a	1	1	4600	RB2	RB3	500.0	50	230	300	FR2	0	R1070T
1588.969	1.6	2242685	WORD	n/a	wordpools/wordpool_SP.txt	PERA	2	13	[0, 0, 0]	n/a	1	1	4600	RB2	RB3	500.0	50	230	300	FR2	0	R1070T
1591.504	1.6	2245220	WORD	n/a	wordpools/wordpool_SP.txt	JARRON	3	13	[0, 0, 0]	n/a	0	1	0	n/a	n/a	0.0	0	0	0	FR2	0	R1070T
1593.97	1.6	2247686	WORD	n/a	wordpools/wordpool_SP.txt	HACHA	4	13	[0, 0, 0]	n/a	0	1	0	n/a	n/a	0.0	0	0	0	FR2	0	R1070T
1596.248	4.6	2249964	STIM_ON	n/a	n/a	n/a	-999	13	[0, 0, 0]	n/a	1	1	4600	RB2	RB3	500.0	50	230	300	FR2	0	R1070T
1596.455	1.6	2250171	WORD	n/a	wordpools/wordpool_SP.txt	ARBOL	5	13	[0, 0, 0]	n/a	1	1	4600	RB2	RB3	500.0	50	230	300	FR2	0	R1070T
1598.921	1.6	2252637	WORD	n/a	wordpools/wordpool_SP.txt	PUERTA	6	13	[0, 0, 0]	n/a	1	1	4600	RB2	RB3	500.0	50	230	300	FR2	0	R1070T
1601.555	1.6	2255270	WORD	n/a	wordpools/wordpool_SP.txt	MONO	7	13	[0, 0, 0]	n/a	0	1	0	n/a	n/a	0.0	0	0	0	FR2	0	R1070T
1604.173	1.6	2257888	WORD	n/a	wordpools/wordpool_SP.txt	AVE	8	13	[0, 0, 0]	n/a	0	1	0	n/a	n/a	0.0	0	0	0	FR2	0	R1070T
1606.52	4.6	2260235	STIM_ON	n/a	n/a	n/a	-999	13	[0, 0, 0]	n/a	1	1	4600	RB2	RB3	500.0	50	230	300	FR2	0	R1070T
1606.722	1.6	2260437	WORD	n/a	wordpools/wordpool_SP.txt	CESPED	9	13	[0, 0, 0]	n/a	1	1	4600	RB2	RB3	500.0	50	230	300	FR2	0	R1070T
1609.14	1.6	2262855	WORD	n/a	wordpools/wordpool_SP.txt	MONEDA	10	13	[0, 0, 0]	n/a	1	1	4600	RB2	RB3	500.0	50	230	300	FR2	0	R1070T
1611.74	1.6	2265455	WORD	n/a	wordpools/wordpool_SP.txt	ROBLE	11	13	[0, 0, 0]	n/a	0	1	0	n/a	n/a	0.0	0	0	0	FR2	0	R1070T
1614.324	1.6	2268039	WORD	n/a	wordpools/wordpool_SP.txt	PANTANO	12	13	[0, 0, 0]	n/a	0	1	0	n/a	n/a	0.0	0	0	0	FR2	0	R1070T
1615.94	0.001	2269655	DISTRACT_START	n/a	n/a	n/a	-999	13	[0, 0, 0]	n/a	0	1	0	n/a	n/a	0.0	0	0	0	FR2	0	R1070T
1615.941	0.016	2269656	START	n/a	n/a	n/a	-999	13	[-999, -999, -999]	n/a	0	1	0	n/a	n/a	0.0	0	0	0	FR2	0	R1070T
1615.957	7.651	2269672	PROB	7.625	n/a	n/a	-999	13	[9, 2, 2]	13	0	1	0	n/a	n/a	0.0	0	0	0	FR2	0	R1070T
1623.608	10.837	2277322	PROB	10.814	n/a	n/a	-999	13	[7, 8, 2]	15	0	1	0	n/a	n/a	0.0	0	0	0	FR2	0	R1070T
1634.445	7.504	2288159	PROB	7.504	n/a	n/a	-999	13	[7, 7, 7]	21	0	1	0	n/a	n/a	0.0	0	0	0	FR2	0	R1070T
1641.949	0.013	2295663	STOP	n/a	n/a	n/a	-999	13	[-999, -999, -999]	n/a	0	1	0	n/a	n/a	0.0	0	0	0	FR2	0	R1070T
1641.962	1.135	2295676	DISTRACT_END	n/a	n/a	n/a	-999	13	[0, 0, 0]	n/a	0	1	0	n/a	n/a	0.0	0	0	0	FR2	0	R1070T
1643.097	1.731	2296810	REC_START	n/a	n/a	n/a	-999	13	[0, 0, 0]	n/a	0	1	0	n/a	n/a	0.0	0	0	0	FR2	0	R1070T
1644.828	0.891	2298541	REC_WORD	1.731	n/a	PUERTA	-999	13	[0, 0, 0]	n/a	0	1	0	n/a	n/a	0.0	0	0	0	FR2	0	R1070T
1645.719	2.134	2299432	REC_WORD	2.622	n/a	JARRON	-999	13	[0, 0, 0]	n/a	0	1	0	n/a	n/a	0.0	0	0	0	FR2	0	R1070T
1647.853	1.949	2301566	REC_WORD	4.756	n/a	PERA	-999	13	[0, 0, 0]	n/a	0	1	0	n/a	n/a	0.0	0	0	0	FR2	0	R1070T
1649.802	23.305	2303515	REC_WORD	6.705	n/a	MADERA	-999	13	[0, 0, 0]	n/a	0	1	0	n/a	n/a	0.0	0	0	0	FR2	0	R1070T
1673.107	2.179	2326819	REC_END	n/a	n/a	n/a	-999	13	[0, 0, 0]	n/a	0	1	0	n/a	n/a	0.0	0	0	0	FR2	0	R1070T
1675.286	0.0	2328998	TRIAL	n/a	n/a	n/a	-999	14	[0, 0, 0]	n/a	0	1	0	n/a	n/a	0.0	0	0	0	FR2	0	R1070T
1675.286	10.0	2328998	COUNTDOWN_START	n/a	n/a	n/a	-999	14	[0, 0, 0]	n/a	0	1	0	n/a	n/a	0.0	0	0	0	FR2	0	R1070T
1685.714	0.006	2339425	COUNTDOWN_END	n/a	n/a	n/a	-999	14	[0, 0, 0]	n/a	0	1	0	n/a	n/a	0.0	0	0	0	FR2	0	R1070T
1685.72	1.6	2339431	ORIENT	n/a	n/a	n/a	-999	14	[0, 0, 0]	n/a	0	1	0	n/a	n/a	0.0	0	0	0	FR2	0	R1070T
1688.07	4.6	2341781	STIM_ON	n/a	n/a	n/a	-999	14	[0, 0, 0]	n/a	1	1	4600	RB2	RB3	500.0	50	230	300	FR2	0	R1070T
1688.288	1.6	2341999	WORD	n/a	wordpools/wordpool_SP.txt	PLAYA	1	14	[0, 0, 0]	n/a	1	1	4600	RB2	RB3	500.0	50	230	300	FR2	0	R1070T
1690.687	1.6	2344398	WORD	n/a	wordpools/wordpool_SP.txt	TECHO	2	14	[0, 0, 0]	n/a	1	1	4600	RB2	RB3	500.0	50	230	300	FR2	0	R1070T
1693.105	1.6	2346816	WORD	n/a	wordpools/wordpool_SP.txt	CHALECO	3	14	[0, 0, 0]	n/a	0	1	0	n/a	n/a	0.0	0	0	0	FR2	0	R1070T
1695.655	1.6	2349366	WORD	n/a	wordpools/wordpool_SP.txt	CHISPA	4	14	[0, 0, 0]	n/a	0	1	0	n/a	n/a	0.0	0	0	0	FR2	0	R1070T
1697.92	4.6	2351631	STIM_ON	n/a	n/a	n/a	-999	14	[0, 0, 0]	n/a	1	1	4600	RB2	RB3	500.0	50	230	300	FR2	0	R1070T
1698.123	1.6	2351834	WORD	n/a	wordpools/wordpool_SP.txt	CAJA	5	14	[0, 0, 0]	n/a	1	1	4600	RB2	RB3	500.0	50	230	300	FR2	0	R1070T
1700.606	1.6	2354317	WORD	n/a	wordpools/wordpool_SP.txt	PARQUE	6	14	[0, 0, 0]	n/a	1	1	4600	RB2	RB3	500.0	50	230	300	FR2	0	R1070T
1703.191	1.6	2356902	WORD	n/a	wordpools/wordpool_SP.txt	GANSOS	7	14	[0, 0, 0]	n/a	0	1	0	n/a	n/a	0.0	0	0	0	FR2	0	R1070T
1705.707	1.6	2359417	WORD	n/a	wordpools/wordpool_SP.txt	GUISANTE	8	14	[0, 0, 0]	n/a	0	1	0	n/a	n/a	0.0	0	0	0	FR2	0	R1070T
1707.928	4.6	2361638	STIM_ON	n/a	n/a	n/a	-999	14	[0, 0, 0]	n/a	1	1	4600	RB2	RB3	500.0	50	230	300	FR2	0	R1070T
1708.142	1.6	2361852	WORD	n/a	wordpools/wordpool_SP.txt	ESTERA	9	14	[0, 0, 0]	n/a	1	1	4600	RB2	RB3	500.0	50	230	300	FR2	0	R1070T
1710.707	1.6	2364417	WORD	n/a	wordpools/wordpool_SP.txt	ESQUI	10	14	[0, 0, 0]	n/a	1	1	4600	RB2	RB3	500.0	50	230	300	FR2	0	R1070T
1713.242	1.6	2366952	WORD	n/a	wordpools/wordpool_SP.txt	PIEDRA	11	14	[0, 0, 0]	n/a	0	1	0	n/a	n/a	0.0	0	0	0	FR2	0	R1070T
1715.692	1.6	2369402	WORD	n/a	wordpools/wordpool_SP.txt	LUNAR	12	14	[0, 0, 0]	n/a	0	1	0	n/a	n/a	0.0	0	0	0	FR2	0	R1070T
1717.31	0.001	2371020	DISTRACT_START	n/a	n/a	n/a	-999	14	[0, 0, 0]	n/a	0	1	0	n/a	n/a	0.0	0	0	0	FR2	0	R1070T
1717.311	0.015	2371021	START	n/a	n/a	n/a	-999	14	[-999, -999, -999]	n/a	0	1	0	n/a	n/a	0.0	0	0	0	FR2	0	R1070T
1717.326	9.002	2371036	PROB	8.968	n/a	n/a	-999	14	[7, 6, 1]	14	0	1	0	n/a	n/a	0.0	0	0	0	FR2	0	R1070T
1726.328	3.466	2380037	PROB	3.445	n/a	n/a	-999	14	[9, 1, 2]	12	0	1	0	n/a	n/a	0.0	0	0	0	FR2	0	R1070T
1729.794	6.835	2383503	PROB	6.803	n/a	n/a	-999	14	[9, 5, 7]	21	0	1	0	n/a	n/a	0.0	0	0	0	FR2	0	R1070T
1736.629	6.785	2390338	PROB	6.785	n/a	n/a	-999	14	[5, 6, 7]	18	0	1	0	n/a	n/a	0.0	0	0	0	FR2	0	R1070T
1743.414	0.017	2397123	STOP	n/a	n/a	n/a	-999	14	[-999, -999, -999]	n/a	0	1	0	n/a	n/a	0.0	0	0	0	FR2	0	R1070T
1743.431	1.068	2397140	DISTRACT_END	n/a	n/a	n/a	-999	14	[0, 0, 0]	n/a	0	1	0	n/a	n/a	0.0	0	0	0	FR2	0	R1070T
1744.499	1.424	2398207	REC_START	n/a	n/a	n/a	-999	14	[0, 0, 0]	n/a	0	1	0	n/a	n/a	0.0	0	0	0	FR2	0	R1070T
1745.923	1.401	2399631	REC_WORD	1.424	n/a	TECHO	-999	14	[0, 0, 0]	n/a	0	1	0	n/a	n/a	0.0	0	0	0	FR2	0	R1070T
1747.324	2.769	2401032	REC_WORD	2.825	n/a	CAJA	-999	14	[0, 0, 0]	n/a	0	1	0	n/a	n/a	0.0	0	0	0	FR2	0	R1070T
1750.093	10.004	2403801	REC_WORD	5.594	n/a	PIEDRA	-999	14	[0, 0, 0]	n/a	0	1	0	n/a	n/a	0.0	0	0	0	FR2	0	R1070T
1760.097	14.413	2413805	REC_WORD	15.598	n/a	MADERA	-999	14	[0, 0, 0]	n/a	0	1	0	n/a	n/a	0.0	0	0	0	FR2	0	R1070T
1774.51	4.027	2428217	REC_END	n/a	n/a	n/a	-999	14	[0, 0, 0]	n/a	0	1	0	n/a	n/a	0.0	0	0	0	FR2	0	R1070T
1778.537	0.0	2432244	TRIAL	n/a	n/a	n/a	-999	15	[0, 0, 0]	n/a	0	1	0	n/a	n/a	0.0	0	0	0	FR2	0	R1070T
1778.537	10.0	2432244	COUNTDOWN_START	n/a	n/a	n/a	-999	15	[0, 0, 0]	n/a	0	1	0	n/a	n/a	0.0	0	0	0	FR2	0	R1070T
1788.965	0.007	2442671	COUNTDOWN_END	n/a	n/a	n/a	-999	15	[0, 0, 0]	n/a	0	1	0	n/a	n/a	0.0	0	0	0	FR2	0	R1070T
1788.972	1.6	2442678	ORIENT	n/a	n/a	n/a	-999	15	[0, 0, 0]	n/a	0	1	0	n/a	n/a	0.0	0	0	0	FR2	0	R1070T
1791.33	4.6	2445036	STIM_ON	n/a	n/a	n/a	-999	15	[0, 0, 0]	n/a	1	1	4600	RB2	RB3	500.0	50	230	300	FR2	0	R1070T
1791.539	1.6	2445245	WORD	n/a	wordpools/wordpool_SP.txt	JUEZ	1	15	[0, 0, 0]	n/a	1	1	4600	RB2	RB3	500.0	50	230	300	FR2	0	R1070T
1793.939	1.6	2447645	WORD	n/a	wordpools/wordpool_SP.txt	MEDIA	2	15	[0, 0, 0]	n/a	1	1	4600	RB2	RB3	500.0	50	230	300	FR2	0	R1070T
1796.474	1.6	2450180	WORD	n/a	wordpools/wordpool_SP.txt	PEZ	3	15	[0, 0, 0]	n/a	0	1	0	n/a	n/a	0.0	0	0	0	FR2	0	R1070T
1798.924	1.6	2452630	WORD	n/a	wordpools/wordpool_SP.txt	AVION	4	15	[0, 0, 0]	n/a	0	1	0	n/a	n/a	0.0	0	0	0	FR2	0	R1070T
1801.34	4.6	2455046	STIM_ON	n/a	n/a	n/a	-999	15	[0, 0, 0]	n/a	1	1	4600	RB2	RB3	500.0	50	230	300	FR2	0	R1070T
1801.557	1.6	2455263	WORD	n/a	wordpools/wordpool_SP.txt	ESCUELA	5	15	[0, 0, 0]	n/a	1	1	4600	RB2	RB3	500.0	50	230	300	FR2	0	R1070T
1804.041	1.6	2457747	WORD	n/a	wordpools/wordpool_SP.txt	PULGAR	6	15	[0, 0, 0]	n/a	1	1	4600	RB2	RB3	500.0	50	230	300	FR2	0	R1070T
1806.525	1.6	2460230	WORD	n/a	wordpools/wordpool_SP.txt	CUCHARA	7	15	[0, 0, 0]	n/a	0	1	0	n/a	n/a	0.0	0	0	0	FR2	0	R1070T
1809.093	1.6	2462798	WORD	n/a	wordpools/wordpool_SP.txt	BANO	8	15	[0, 0, 0]	n/a	0	1	0	n/a	n/a	0.0	0	0	0	FR2	0	R1070T
1811.336	4.6	2465041	STIM_ON	n/a	n/a	n/a	-999	15	[0, 0, 0]	n/a	1	1	4600	RB2	RB3	500.0	50	230	300	FR2	0	R1070T
1811.543	1.6	2465248	WORD	n/a	wordpools/wordpool_SP.txt	SAL	9	15	[0, 0, 0]	n/a	1	1	4600	RB2	RB3	500.0	50	230	300	FR2	0	R1070T
1814.094	1.6	2467799	WORD	n/a	wordpools/wordpool_SP.txt	TIENDA	10	15	[0, 0, 0]	n/a	1	1	4600	RB2	RB3	500.0	50	230	300	FR2	0	R1070T
1816.71	1.6	2470415	WORD	n/a	wordpools/wordpool_SP.txt	MAIZ	11	15	[0, 0, 0]	n/a	0	1	0	n/a	n/a	0.0	0	0	0	FR2	0	R1070T
1819.262	1.6	2472967	WORD	n/a	wordpools/wordpool_SP.txt	CUBO	12	15	[0, 0, 0]	n/a	0	1	0	n/a	n/a	0.0	0	0	0	FR2	0	R1070T
1820.878	0.001	2474583	DISTRACT_START	n/a	n/a	n/a	-999	15	[0, 0, 0]	n/a	0	1	0	n/a	n/a	0.0	0	0	0	FR2	0	R1070T
1820.879	0.015	2474584	START	n/a	n/a	n/a	-999	15	[-999, -999, -999]	n/a	0	1	0	n/a	n/a	0.0	0	0	0	FR2	0	R1070T
1820.894	10.52	2474599	PROB	10.496	n/a	n/a	-999	15	[6, 8, 3]	17	0	1	0	n/a	n/a	0.0	0	0	0	FR2	0	R1070T
1831.414	4.533	2485118	PROB	4.511	n/a	n/a	-999	15	[3, 2, 2]	7	0	1	0	n/a	n/a	0.0	0	0	0	FR2	0	R1070T
1835.947	7.01	2489651	PROB	7.01	n/a	n/a	-999	15	[8, 4, 7]	19	0	1	0	n/a	n/a	0.0	0	0	0	FR2	0	R1070T
1842.957	0.008	2496661	STOP	n/a	n/a	n/a	-999	15	[-999, -999, -999]	n/a	0	1	0	n/a	n/a	0.0	0	0	0	FR2	0	R1070T
1842.965	1.084	2496669	DISTRACT_END	n/a	n/a	n/a	-999	15	[0, 0, 0]	n/a	0	1	0	n/a	n/a	0.0	0	0	0	FR2	0	R1070T
1844.049	3.283	2497753	REC_START	n/a	n/a	n/a	-999	15	[0, 0, 0]	n/a	0	1	0	n/a	n/a	0.0	0	0	0	FR2	0	R1070T
1847.332	7.976	2501035	REC_WORD	3.283	n/a	CHARA	-999	15	[0, 0, 0]	n/a	0	1	0	n/a	n/a	0.0	0	0	0	FR2	0	R1070T
1855.308	14.071	2509011	REC_WORD	11.259	n/a	INTRUSION	-999	15	[0, 0, 0]	n/a	0	1	0	n/a	n/a	0.0	0	0	0	FR2	0	R1070T
1869.379	3.623	2523081	REC_WORD	25.33	n/a	MEDIA	-999	15	[0, 0, 0]	n/a	0	1	0	n/a	n/a	0.0	0	0	0	FR2	0	R1070T
1873.002	1.058	2526704	REC_WORD	28.953	n/a	CUCHARA	-999	15	[0, 0, 0]	n/a	0	1	0	n/a	n/a	0.0	0	0	0	FR2	0	R1070T
1874.06	10.163	2527762	REC_END	n/a	n/a	n/a	-999	15	[0, 0, 0]	n/a	0	1	0	n/a	n/a	0.0	0	0	0	FR2	0	R1070T
1884.223	10.0	2537925	COUNTDOWN_START	n/a	n/a	n/a	-999	16	[0, 0, 0]	n/a	0	1	0	n/a	n/a	0.0	0	0	0	FR2	0	R1070T
1884.224	10.427	2537926	TRIAL	n/a	n/a	n/a	-999	16	[0, 0, 0]	n/a	0	1	0	n/a	n/a	0.0	0	0	0	FR2	0	R1070T
1894.651	0.007	2548352	COUNTDOWN_END	n/a	n/a	n/a	-999	16	[0, 0, 0]	n/a	0	1	0	n/a	n/a	0.0	0	0	0	FR2	0	R1070T
1894.658	1.6	2548359	ORIENT	n/a	n/a	n/a	-999	16	[0, 0, 0]	n/a	0	1	0	n/a	n/a	0.0	0	0	0	FR2	0	R1070T
1896.875	4.6	2550576	STIM_ON	n/a	n/a	n/a	-999	16	[0, 0, 0]	n/a	1	1	4600	RB2	RB3	500.0	50	230	300	FR2	0	R1070T
1897.093	1.6	2550794	WORD	n/a	wordpools/wordpool_SP.txt	OREJA	1	16	[0, 0, 0]	n/a	1	1	4600	RB2	RB3	500.0	50	230	300	FR2	0	R1070T
1899.709	1.6	2553410	WORD	n/a	wordpools/wordpool_SP.txt	MANGUERA	2	16	[0, 0, 0]	n/a	1	1	4600	RB2	RB3	500.0	50	230	300	FR2	0	R1070T
1902.21	1.6	2555911	WORD	n/a	wordpools/wordpool_SP.txt	ABEJA	3	16	[0, 0, 0]	n/a	0	1	0	n/a	n/a	0.0	0	0	0	FR2	0	R1070T
1904.776	1.6	2558477	WORD	n/a	wordpools/wordpool_SP.txt	TARRO	4	16	[0, 0, 0]	n/a	0	1	0	n/a	n/a	0.0	0	0	0	FR2	0	R1070T
1907.057	4.6	2560758	STIM_ON	n/a	n/a	n/a	-999	16	[0, 0, 0]	n/a	1	1	4600	RB2	RB3	500.0	50	230	300	FR2	0	R1070T
1907.261	1.6	2560962	WORD	n/a	wordpools/wordpool_SP.txt	VESTIDO	5	16	[0, 0, 0]	n/a	1	1	4600	RB2	RB3	500.0	50	230	300	FR2	0	R1070T
1909.744	1.6	2563444	WORD	n/a	wordpools/wordpool_SP.txt	HERRAMIENTA	6	16	[0, 0, 0]	n/a	1	1	4600	RB2	RB3	500.0	50	230	300	FR2	0	R1070T
1912.362	1.6	2566062	WORD	n/a	wordpools/wordpool_SP.txt	JAULA	7	16	[0, 0, 0]	n/a	0	1	0	n/a	n/a	0.0	0	0	0	FR2	0	R1070T
1914.961	1.6	2568661	WORD	n/a	wordpools/wordpool_SP.txt	CEPILLO	8	16	[0, 0, 0]	n/a	0	1	0	n/a	n/a	0.0	0	0	0	FR2	0	R1070T
1917.188	4.6	2570888	STIM_ON	n/a	n/a	n/a	-999	16	[0, 0, 0]	n/a	1	1	4600	RB2	RB3	500.0	50	230	300	FR2	0	R1070T
1917.396	1.6	2571096	WORD	n/a	wordpools/wordpool_SP.txt	ESCUDO	9	16	[0, 0, 0]	n/a	1	1	4600	RB2	RB3	500.0	50	230	300	FR2	0	R1070T
1920.012	1.6	2573712	WORD	n/a	wordpools/wordpool_SP.txt	PRECIPICIO	10	16	[0, 0, 0]	n/a	1	1	4600	RB2	RB3	500.0	50	230	300	FR2	0	R1070T
1922.613	1.6	2576313	WORD	n/a	wordpools/wordpool_SP.txt	DARDO	11	16	[0, 0, 0]	n/a	0	1	0	n/a	n/a	0.0	0	0	0	FR2	0	R1070T
1925.148	1.6	2578848	WORD	n/a	wordpools/wordpool_SP.txt	VACA	12	16	[0, 0, 0]	n/a	0	1	0	n/a	n/a	0.0	0	0	0	FR2	0	R1070T
1926.764	0.0	2580464	DISTRACT_START	n/a	n/a	n/a	-999	16	[0, 0, 0]	n/a	0	1	0	n/a	n/a	0.0	0	0	0	FR2	0	R1070T
1926.764	0.016	2580464	START	n/a	n/a	n/a	-999	16	[-999, -999, -999]	n/a	0	1	0	n/a	n/a	0.0	0	0	0	FR2	0	R1070T
1926.78	6.536	2580480	PROB	6.515	n/a	n/a	-999	16	[4, 6, 3]	13	0	1	0	n/a	n/a	0.0	0	0	0	FR2	0	R1070T
1933.316	4.934	2587015	PROB	4.906	n/a	n/a	-999	16	[4, 4, 5]	13	0	1	0	n/a	n/a	0.0	0	0	0	FR2	0	R1070T
1938.25	6.968	2591949	PROB	6.94	n/a	n/a	-999	16	[6, 4, 5]	18	0	1	0	n/a	n/a	0.0	0	0	0	FR2	0	R1070T
1945.218	6.868	2598917	PROB	6.868	n/a	n/a	-999	16	[5, 7, 5]	17	0	1	0	n/a	n/a	0.0	0	0	0	FR2	0	R1070T
1952.086	0.017	2605784	STOP	n/a	n/a	n/a	-999	16	[-999, -999, -999]	n/a	0	1	0	n/a	n/a	0.0	0	0	0	FR2	0	R1070T
1952.103	1.084	2605801	DISTRACT_END	n/a	n/a	n/a	-999	16	[0, 0, 0]	n/a	0	1	0	n/a	n/a	0.0	0	0	0	FR2	0	R1070T
1953.187	1.106	2606885	REC_START	n/a	n/a	n/a	-999	16	[0, 0, 0]	n/a	0	1	0	n/a	n/a	0.0	0	0	0	FR2	0	R1070T
1954.293	1.442	2607991	REC_WORD	1.106	n/a	MANGUERA	-999	16	[0, 0, 0]	n/a	0	1	0	n/a	n/a	0.0	0	0	0	FR2	0	R1070T
1955.735	2.939	2609433	REC_WORD	2.548	n/a	OREJA	-999	16	[0, 0, 0]	n/a	0	1	0	n/a	n/a	0.0	0	0	0	FR2	0	R1070T
1958.674	24.523	2612372	REC_WORD	5.487	n/a	VESTIDO	-999	16	[0, 0, 0]	n/a	0	1	0	n/a	n/a	0.0	0	0	0	FR2	0	R1070T
1983.197	2.978	2636894	REC_END	n/a	n/a	n/a	-999	16	[0, 0, 0]	n/a	0	1	0	n/a	n/a	0.0	0	0	0	FR2	0	R1070T
1986.175	10.0	2639872	COUNTDOWN_START	n/a	n/a	n/a	-999	17	[0, 0, 0]	n/a	0	1	0	n/a	n/a	0.0	0	0	0	FR2	0	R1070T
1986.176	10.427	2639873	TRIAL	n/a	n/a	n/a	-999	17	[0, 0, 0]	n/a	0	1	0	n/a	n/a	0.0	0	0	0	FR2	0	R1070T
1996.603	0.007	2650299	COUNTDOWN_END	n/a	n/a	n/a	-999	17	[0, 0, 0]	n/a	0	1	0	n/a	n/a	0.0	0	0	0	FR2	0	R1070T
1996.61	1.6	2650306	ORIENT	n/a	n/a	n/a	-999	17	[0, 0, 0]	n/a	0	1	0	n/a	n/a	0.0	0	0	0	FR2	0	R1070T
1999.194	1.6	2652890	WORD	n/a	wordpools/wordpool_SP.txt	BANDA	1	17	[0, 0, 0]	n/a	0	1	0	n/a	n/a	0.0	0	0	0	FR2	0	R1070T
2001.627	1.6	2655323	WORD	n/a	wordpools/wordpool_SP.txt	DIENTE	2	17	[0, 0, 0]	n/a	0	1	0	n/a	n/a	0.0	0	0	0	FR2	0	R1070T
2003.954	4.6	2657650	STIM_ON	n/a	n/a	n/a	-999	17	[0, 0, 0]	n/a	1	1	4600	RB2	RB3	500.0	50	230	300	FR2	0	R1070T
2004.162	1.6	2657858	WORD	n/a	wordpools/wordpool_SP.txt	ZOOLOGICO	3	17	[0, 0, 0]	n/a	1	1	4600	RB2	RB3	500.0	50	230	300	FR2	0	R1070T
2006.778	1.6	2660474	WORD	n/a	wordpools/wordpool_SP.txt	JEFE	4	17	[0, 0, 0]	n/a	1	1	4600	RB2	RB3	500.0	50	230	300	FR2	0	R1070T
2009.23	1.6	2662926	WORD	n/a	wordpools/wordpool_SP.txt	CERCA	5	17	[0, 0, 0]	n/a	0	1	0	n/a	n/a	0.0	0	0	0	FR2	0	R1070T
2011.812	1.6	2665507	WORD	n/a	wordpools/wordpool_SP.txt	BOLA	6	17	[0, 0, 0]	n/a	0	1	0	n/a	n/a	0.0	0	0	0	FR2	0	R1070T
2014.212	4.6	2667907	STIM_ON	n/a	n/a	n/a	-999	17	[0, 0, 0]	n/a	1	1	4600	RB2	RB3	500.0	50	230	300	FR2	0	R1070T
2014.414	1.6	2668109	WORD	n/a	wordpools/wordpool_SP.txt	PELAJE	7	17	[0, 0, 0]	n/a	1	1	4600	RB2	RB3	500.0	50	230	300	FR2	0	R1070T
2017.047	1.6	2670742	WORD	n/a	wordpools/wordpool_SP.txt	ARCA	8	17	[0, 0, 0]	n/a	1	1	4600	RB2	RB3	500.0	50	230	300	FR2	0	R1070T
2019.547	1.6	2673242	WORD	n/a	wordpools/wordpool_SP.txt	TINTA	9	17	[0, 0, 0]	n/a	0	1	0	n/a	n/a	0.0	0	0	0	FR2	0	R1070T
2022.149	1.6	2675844	WORD	n/a	wordpools/wordpool_SP.txt	POLILLA	10	17	[0, 0, 0]	n/a	0	1	0	n/a	n/a	0.0	0	0	0	FR2	0	R1070T
2024.402	4.6	2678097	STIM_ON	n/a	n/a	n/a	-999	17	[0, 0, 0]	n/a	1	1	4600	RB2	RB3	500.0	50	230	300	FR2	0	R1070T
2024.615	1.6	2678310	WORD	n/a	wordpools/wordpool_SP.txt	CARNET	11	17	[0, 0, 0]	n/a	1	1	4600	RB2	RB3	500.0	50	230	300	FR2	0	R1070T
2027.216	1.6	2680911	WORD	n/a	wordpools/wordpool_SP.txt	ESPADA	12	17	[0, 0, 0]	n/a	1	1	4600	RB2	RB3	500.0	50	230	300	FR2	0	R1070T
2028.832	0.001	2682527	DISTRACT_START	n/a	n/a	n/a	-999	17	[0, 0, 0]	n/a	1	1	4600	RB2	RB3	500.0	50	230	300	FR2	0	R1070T
2028.833	0.016	2682528	START	n/a	n/a	n/a	-999	17	[-999, -999, -999]	n/a	0	1	0	n/a	n/a	0.0	0	0	0	FR2	0	R1070T
2028.849	5.868	2682544	PROB	5.844	n/a	n/a	-999	17	[5, 4, 9]	18	0	1	0	n/a	n/a	0.0	0	0	0	FR2	0	R1070T
2034.717	4.9	2688411	PROB	4.872	n/a	n/a	-999	17	[8, 1, 8]	17	0	1	0	n/a	n/a	0.0	0	0	0	FR2	0	R1070T
2039.617	5.452	2693311	PROB	5.428	n/a	n/a	-999	17	[2, 8, 9]	19	0	1	0	n/a	n/a	0.0	0	0	0	FR2	0	R1070T
2045.069	4.808	2698763	PROB	4.808	n/a	n/a	-999	17	[6, 2, 6]	14	0	1	0	n/a	n/a	0.0	0	0	0	FR2	0	R1070T
2049.877	0.009	2703571	STOP	n/a	n/a	n/a	-999	17	[-999, -999, -999]	n/a	0	1	0	n/a	n/a	0.0	0	0	0	FR2	0	R1070T
2049.886	1.084	2703580	DISTRACT_END	n/a	n/a	n/a	-999	17	[0, 0, 0]	n/a	0	1	0	n/a	n/a	0.0	0	0	0	FR2	0	R1070T
2050.97	0.561	2704663	REC_START	n/a	n/a	n/a	-999	17	[0, 0, 0]	n/a	0	1	0	n/a	n/a	0.0	0	0	0	FR2	0	R1070T
2051.531	1.428	2705224	REC_WORD	0.561	n/a	PELAJE	-999	17	[0, 0, 0]	n/a	0	1	0	n/a	n/a	0.0	0	0	0	FR2	0	R1070T
2052.959	4.849	2706652	REC_WORD	1.989	n/a	ZOOLOGICO	-999	17	[0, 0, 0]	n/a	0	1	0	n/a	n/a	0.0	0	0	0	FR2	0	R1070T
2057.808	8.502	2711501	REC_WORD	6.838	n/a	DIENTE	-999	17	[0, 0, 0]	n/a	0	1	0	n/a	n/a	0.0	0	0	0	FR2	0	R1070T
2066.31	6.722	2720003	REC_WORD	15.34	n/a	CERCA	-999	17	[0, 0, 0]	n/a	0	1	0	n/a	n/a	0.0	0	0	0	FR2	0	R1070T
2073.032	7.952	2726724	REC_WORD	22.062	n/a	POLILLA	-999	17	[0, 0, 0]	n/a	0	1	0	n/a	n/a	0.0	0	0	0	FR2	0	R1070T
2080.984	2.791	2734676	REC_END	n/a	n/a	n/a	-999	17	[0, 0, 0]	n/a	0	1	0	n/a	n/a	0.0	0	0	0	FR2	0	R1070T
2083.775	10.0	2737467	COUNTDOWN_START	n/a	n/a	n/a	-999	18	[0, 0, 0]	n/a	0	1	0	n/a	n/a	0.0	0	0	0	FR2	0	R1070T
2083.776	10.427	2737468	TRIAL	n/a	n/a	n/a	-999	18	[0, 0, 0]	n/a	0	1	0	n/a	n/a	0.0	0	0	0	FR2	0	R1070T
2094.203	0.009	2747894	COUNTDOWN_END	n/a	n/a	n/a	-999	18	[0, 0, 0]	n/a	0	1	0	n/a	n/a	0.0	0	0	0	FR2	0	R1070T
2094.212	1.6	2747903	ORIENT	n/a	n/a	n/a	-999	18	[0, 0, 0]	n/a	0	1	0	n/a	n/a	0.0	0	0	0	FR2	0	R1070T
2096.711	1.6	2750402	WORD	n/a	wordpools/wordpool_SP.txt	VENADO	1	18	[0, 0, 0]	n/a	0	1	0	n/a	n/a	0.0	0	0	0	FR2	0	R1070T
2099.196	1.6	2752887	WORD	n/a	wordpools/wordpool_SP.txt	COPA	2	18	[0, 0, 0]	n/a	0	1	0	n/a	n/a	0.0	0	0	0	FR2	0	R1070T
2101.398	4.6	2755089	STIM_ON	n/a	n/a	n/a	-999	18	[0, 0, 0]	n/a	1	1	4600	RB2	RB3	500.0	50	230	300	FR2	0	R1070T
2101.612	1.6	2755303	WORD	n/a	wordpools/wordpool_SP.txt	JUGO	3	18	[0, 0, 0]	n/a	1	1	4600	RB2	RB3	500.0	50	230	300	FR2	0	R1070T
2104.08	1.6	2757771	WORD	n/a	wordpools/wordpool_SP.txt	VARITA	4	18	[0, 0, 0]	n/a	1	1	4600	RB2	RB3	500.0	50	230	300	FR2	0	R1070T
2106.696	1.6	2760387	WORD	n/a	wordpools/wordpool_SP.txt	UVA	5	18	[0, 0, 0]	n/a	0	1	0	n/a	n/a	0.0	0	0	0	FR2	0	R1070T
2109.131	1.6	2762822	WORD	n/a	wordpools/wordpool_SP.txt	GRUA	6	18	[0, 0, 0]	n/a	0	1	0	n/a	n/a	0.0	0	0	0	FR2	0	R1070T
2111.424	4.6	2765114	STIM_ON	n/a	n/a	n/a	-999	18	[0, 0, 0]	n/a	1	1	4600	RB2	RB3	500.0	50	230	300	FR2	0	R1070T
2111.631	1.6	2765321	WORD	n/a	wordpools/wordpool_SP.txt	DEDO	7	18	[0, 0, 0]	n/a	1	1	4600	RB2	RB3	500.0	50	230	300	FR2	0	R1070T
2114.149	1.6	2767839	WORD	n/a	wordpools/wordpool_SP.txt	BANCO	8	18	[0, 0, 0]	n/a	1	1	4600	RB2	RB3	500.0	50	230	300	FR2	0	R1070T
2116.615	1.6	2770305	WORD	n/a	wordpools/wordpool_SP.txt	PARED	9	18	[0, 0, 0]	n/a	0	1	0	n/a	n/a	0.0	0	0	0	FR2	0	R1070T
2119.116	1.6	2772806	WORD	n/a	wordpools/wordpool_SP.txt	PAYASO	10	18	[0, 0, 0]	n/a	0	1	0	n/a	n/a	0.0	0	0	0	FR2	0	R1070T
2121.528	4.6	2775218	STIM_ON	n/a	n/a	n/a	-999	18	[0, 0, 0]	n/a	1	1	4600	RB2	RB3	500.0	50	230	300	FR2	0	R1070T
2121.732	1.6	2775422	WORD	n/a	wordpools/wordpool_SP.txt	LABERINTO	11	18	[0, 0, 0]	n/a	1	1	4600	RB2	RB3	500.0	50	230	300	FR2	0	R1070T
2124.234	1.6	2777924	WORD	n/a	wordpools/wordpool_SP.txt	TARTA	12	18	[0, 0, 0]	n/a	1	1	4600	RB2	RB3	500.0	50	230	300	FR2	0	R1070T
2125.85	0.001	2779540	DISTRACT_START	n/a	n/a	n/a	-999	18	[0, 0, 0]	n/a	1	1	4600	RB2	RB3	500.0	50	230	300	FR2	0	R1070T
2125.851	0.015	2779541	START	n/a	n/a	n/a	-999	18	[-999, -999, -999]	n/a	0	1	0	n/a	n/a	0.0	0	0	0	FR2	0	R1070T
2125.866	8.403	2779556	PROB	8.381	n/a	n/a	-999	18	[5, 9, 8]	21	0	1	0	n/a	n/a	0.0	0	0	0	FR2	0	R1070T
2134.269	9.135	2787958	PROB	9.105	n/a	n/a	-999	18	[2, 6, 7]	15	0	1	0	n/a	n/a	0.0	0	0	0	FR2	0	R1070T
2143.404	6.449	2797093	PROB	6.449	n/a	n/a	-999	18	[8, 2, 4]	14	0	1	0	n/a	n/a	0.0	0	0	0	FR2	0	R1070T
2149.853	0.018	2803542	STOP	n/a	n/a	n/a	-999	18	[-999, -999, -999]	n/a	0	1	0	n/a	n/a	0.0	0	0	0	FR2	0	R1070T
2149.871	1.102	2803560	DISTRACT_END	n/a	n/a	n/a	-999	18	[0, 0, 0]	n/a	0	1	0	n/a	n/a	0.0	0	0	0	FR2	0	R1070T
2150.973	9.076	2804662	REC_START	n/a	n/a	n/a	-999	18	[0, 0, 0]	n/a	0	1	0	n/a	n/a	0.0	0	0	0	FR2	0	R1070T
2160.049	3.367	2813737	REC_WORD	9.076	n/a	PARED	-999	18	[0, 0, 0]	n/a	0	1	0	n/a	n/a	0.0	0	0	0	FR2	0	R1070T
2163.416	3.147	2817104	REC_WORD	12.443	n/a	TECHO	-999	18	[0, 0, 0]	n/a	0	1	0	n/a	n/a	0.0	0	0	0	FR2	0	R1070T
2166.563	14.419	2820251	REC_WORD	15.59	n/a	BRAZO	-999	18	[0, 0, 0]	n/a	0	1	0	n/a	n/a	0.0	0	0	0	FR2	0	R1070T
2180.982	13.531	2834669	REC_END	n/a	n/a	n/a	-999	18	[0, 0, 0]	n/a	0	1	0	n/a	n/a	0.0	0	0	0	FR2	0	R1070T
2194.513	0.0	2848199	TRIAL	n/a	n/a	n/a	-999	19	[0, 0, 0]	n/a	0	1	0	n/a	n/a	0.0	0	0	0	FR2	0	R1070T
2194.513	10.0	2848199	COUNTDOWN_START	n/a	n/a	n/a	-999	19	[0, 0, 0]	n/a	0	1	0	n/a	n/a	0.0	0	0	0	FR2	0	R1070T
2204.941	0.006	2858627	COUNTDOWN_END	n/a	n/a	n/a	-999	19	[0, 0, 0]	n/a	0	1	0	n/a	n/a	0.0	0	0	0	FR2	0	R1070T
2204.947	1.6	2858633	ORIENT	n/a	n/a	n/a	-999	19	[0, 0, 0]	n/a	0	1	0	n/a	n/a	0.0	0	0	0	FR2	0	R1070T
2207.466	1.6	2861152	WORD	n/a	wordpools/wordpool_SP.txt	MANGA	1	19	[0, 0, 0]	n/a	0	1	0	n/a	n/a	0.0	0	0	0	FR2	0	R1070T
2209.932	1.6	2863618	WORD	n/a	wordpools/wordpool_SP.txt	CUADRADO	2	19	[0, 0, 0]	n/a	0	1	0	n/a	n/a	0.0	0	0	0	FR2	0	R1070T
2212.329	4.6	2866015	STIM_ON	n/a	n/a	n/a	-999	19	[0, 0, 0]	n/a	1	1	4600	RB2	RB3	500.0	50	230	300	FR2	0	R1070T
2212.532	1.6	2866218	WORD	n/a	wordpools/wordpool_SP.txt	CONCHA	3	19	[0, 0, 0]	n/a	1	1	4600	RB2	RB3	500.0	50	230	300	FR2	0	R1070T
2215.134	1.6	2868819	WORD	n/a	wordpools/wordpool_SP.txt	COSTILLA	4	19	[0, 0, 0]	n/a	1	1	4600	RB2	RB3	500.0	50	230	300	FR2	0	R1070T
2217.567	1.6	2871252	WORD	n/a	wordpools/wordpool_SP.txt	TRAJE	5	19	[0, 0, 0]	n/a	0	1	0	n/a	n/a	0.0	0	0	0	FR2	0	R1070T
2220.05	1.6	2873735	WORD	n/a	wordpools/wordpool_SP.txt	RAIZ	6	19	[0, 0, 0]	n/a	0	1	0	n/a	n/a	0.0	0	0	0	FR2	0	R1070T
2222.325	4.6	2876010	STIM_ON	n/a	n/a	n/a	-999	19	[0, 0, 0]	n/a	1	1	4600	RB2	RB3	500.0	50	230	300	FR2	0	R1070T
2222.534	1.6	2876219	WORD	n/a	wordpools/wordpool_SP.txt	TABLERO	7	19	[0, 0, 0]	n/a	1	1	4600	RB2	RB3	500.0	50	230	300	FR2	0	R1070T
2224.901	1.6	2878586	WORD	n/a	wordpools/wordpool_SP.txt	HIELO	8	19	[0, 0, 0]	n/a	1	1	4600	RB2	RB3	500.0	50	230	300	FR2	0	R1070T
2227.469	1.6	2881154	WORD	n/a	wordpools/wordpool_SP.txt	ANZUELO	9	19	[0, 0, 0]	n/a	0	1	0	n/a	n/a	0.0	0	0	0	FR2	0	R1070T
2229.869	1.6	2883554	WORD	n/a	wordpools/wordpool_SP.txt	PIE	10	19	[0, 0, 0]	n/a	0	1	0	n/a	n/a	0.0	0	0	0	FR2	0	R1070T
2232.033	4.6	2885718	STIM_ON	n/a	n/a	n/a	-999	19	[0, 0, 0]	n/a	1	1	4600	RB2	RB3	500.0	50	230	300	FR2	0	R1070T
2232.237	1.6	2885922	WORD	n/a	wordpools/wordpool_SP.txt	MAR	11	19	[0, 0, 0]	n/a	1	1	4600	RB2	RB3	500.0	50	230	300	FR2	0	R1070T
2234.636	1.6	2888320	WORD	n/a	wordpools/wordpool_SP.txt	GUARDIA	12	19	[0, 0, 0]	n/a	1	1	4600	RB2	RB3	500.0	50	230	300	FR2	0	R1070T
2236.237	0.001	2889921	DISTRACT_START	n/a	n/a	n/a	-999	19	[0, 0, 0]	n/a	1	1	4600	RB2	RB3	500.0	50	230	300	FR2	0	R1070T
2236.238	0.016	2889922	START	n/a	n/a	n/a	-999	19	[-999, -999, -999]	n/a	0	1	0	n/a	n/a	0.0	0	0	0	FR2	0	R1070T
2236.254	7.767	2889938	PROB	7.743	n/a	n/a	-999	19	[6, 1, 3]	10	0	1	0	n/a	n/a	0.0	0	0	0	FR2	0	R1070T
2244.021	6.551	2897705	PROB	6.528	n/a	n/a	-999	19	[9, 8, 5]	22	0	1	0	n/a	n/a	0.0	0	0	0	FR2	0	R1070T
2250.572	4.368	2904256	PROB	4.337	n/a	n/a	-999	19	[4, 1, 3]	8	0	1	0	n/a	n/a	0.0	0	0	0	FR2	0	R1070T
2254.94	4.705	2908623	PROB	4.705	n/a	n/a	-999	19	[4, 8, 8]	20	0	1	0	n/a	n/a	0.0	0	0	0	FR2	0	R1070T
2259.645	0.012	2913328	STOP	n/a	n/a	n/a	-999	19	[-999, -999, -999]	n/a	0	1	0	n/a	n/a	0.0	0	0	0	FR2	0	R1070T
2259.657	1.101	2913340	DISTRACT_END	n/a	n/a	n/a	-999	19	[0, 0, 0]	n/a	0	1	0	n/a	n/a	0.0	0	0	0	FR2	0	R1070T
2260.758	1.038	2914441	REC_START	n/a	n/a	n/a	-999	19	[0, 0, 0]	n/a	0	1	0	n/a	n/a	0.0	0	0	0	FR2	0	R1070T
2261.796	0.944	2915479	REC_WORD	1.038	n/a	MANGA	-999	19	[0, 0, 0]	n/a	0	1	0	n/a	n/a	0.0	0	0	0	FR2	0	R1070T
2262.74	1.642	2916423	REC_WORD	1.982	n/a	COSTILLA	-999	19	[0, 0, 0]	n/a	0	1	0	n/a	n/a	0.0	0	0	0	FR2	0	R1070T
2264.382	0.879	2918065	REC_WORD	3.624	n/a	INTRUSION	-999	19	[0, 0, 0]	n/a	0	1	0	n/a	n/a	0.0	0	0	0	FR2	0	R1070T
2265.261	25.51	2918944	REC_WORD	4.503	n/a	PIE	-999	19	[0, 0, 0]	n/a	0	1	0	n/a	n/a	0.0	0	0	0	FR2	0	R1070T
2290.771	9.678	2944453	REC_END	n/a	n/a	n/a	-999	19	[0, 0, 0]	n/a	0	1	0	n/a	n/a	0.0	0	0	0	FR2	0	R1070T
2300.449	0.0	2954130	TRIAL	n/a	n/a	n/a	-999	20	[0, 0, 0]	n/a	0	0	0	n/a	n/a	0.0	0	0	0	FR2	0	R1070T
2300.449	10.0	2954130	COUNTDOWN_START	n/a	n/a	n/a	-999	20	[0, 0, 0]	n/a	0	0	0	n/a	n/a	0.0	0	0	0	FR2	0	R1070T
2310.877	0.006	2964558	COUNTDOWN_END	n/a	n/a	n/a	-999	20	[0, 0, 0]	n/a	0	0	0	n/a	n/a	0.0	0	0	0	FR2	0	R1070T
2310.883	1.6	2964564	ORIENT	n/a	n/a	n/a	-999	20	[0, 0, 0]	n/a	0	0	0	n/a	n/a	0.0	0	0	0	FR2	0	R1070T
2313.268	1.6	2966949	WORD	n/a	wordpools/wordpool_SP.txt	SELLO	1	20	[0, 0, 0]	n/a	0	0	0	n/a	n/a	0.0	0	0	0	FR2	0	R1070T
2315.818	1.6	2969498	WORD	n/a	wordpools/wordpool_SP.txt	ALA	2	20	[0, 0, 0]	n/a	0	0	0	n/a	n/a	0.0	0	0	0	FR2	0	R1070T
2318.402	1.6	2972082	WORD	n/a	wordpools/wordpool_SP.txt	CAMA	3	20	[0, 0, 0]	n/a	0	0	0	n/a	n/a	0.0	0	0	0	FR2	0	R1070T
2320.985	1.6	2974665	WORD	n/a	wordpools/wordpool_SP.txt	PANTALONES	4	20	[0, 0, 0]	n/a	0	0	0	n/a	n/a	0.0	0	0	0	FR2	0	R1070T
2323.487	1.6	2977167	WORD	n/a	wordpools/wordpool_SP.txt	ZORRO	5	20	[0, 0, 0]	n/a	0	0	0	n/a	n/a	0.0	0	0	0	FR2	0	R1070T
2326.036	1.6	2979716	WORD	n/a	wordpools/wordpool_SP.txt	LLAMA	6	20	[0, 0, 0]	n/a	0	0	0	n/a	n/a	0.0	0	0	0	FR2	0	R1070T
2328.537	1.6	2982217	WORD	n/a	wordpools/wordpool_SP.txt	CAMARON	7	20	[0, 0, 0]	n/a	0	0	0	n/a	n/a	0.0	0	0	0	FR2	0	R1070T
2331.171	1.6	2984851	WORD	n/a	wordpools/wordpool_SP.txt	AUTO	8	20	[0, 0, 0]	n/a	0	0	0	n/a	n/a	0.0	0	0	0	FR2	0	R1070T
2333.704	1.6	2987384	WORD	n/a	wordpools/wordpool_SP.txt	BOMBA	9	20	[0, 0, 0]	n/a	0	0	0	n/a	n/a	0.0	0	0	0	FR2	0	R1070T
2336.189	1.6	2989868	WORD	n/a	wordpools/wordpool_SP.txt	TORMENTA	10	20	[0, 0, 0]	n/a	0	0	0	n/a	n/a	0.0	0	0	0	FR2	0	R1070T
2338.688	1.6	2992367	WORD	n/a	wordpools/wordpool_SP.txt	PIPA	11	20	[0, 0, 0]	n/a	0	0	0	n/a	n/a	0.0	0	0	0	FR2	0	R1070T
2341.09	1.6	2994769	WORD	n/a	wordpools/wordpool_SP.txt	MUNDO	12	20	[0, 0, 0]	n/a	0	0	0	n/a	n/a	0.0	0	0	0	FR2	0	R1070T
2342.706	0.001	2996385	DISTRACT_START	n/a	n/a	n/a	-999	20	[0, 0, 0]	n/a	0	0	0	n/a	n/a	0.0	0	0	0	FR2	0	R1070T
2342.707	0.016	2996386	START	n/a	n/a	n/a	-999	20	[-999, -999, -999]	n/a	0	0	0	n/a	n/a	0.0	0	0	0	FR2	0	R1070T
2342.723	5.134	2996402	PROB	5.099	n/a	n/a	-999	20	[2, 1, 9]	12	0	0	0	n/a	n/a	0.0	0	0	0	FR2	0	R1070T
2347.857	3.801	3001536	PROB	3.78	n/a	n/a	-999	20	[3, 1, 5]	9	0	0	0	n/a	n/a	0.0	0	0	0	FR2	0	R1070T
2351.658	5.1	3005337	PROB	5.067	n/a	n/a	-999	20	[8, 4, 5]	17	0	0	0	n/a	n/a	0.0	0	0	0	FR2	0	R1070T
2356.758	5.118	3010436	PROB	5.095	n/a	n/a	-999	20	[9, 9, 2]	20	0	0	0	n/a	n/a	0.0	0	0	0	FR2	0	R1070T
2361.876	6.009	3015554	PROB	6.009	n/a	n/a	-999	20	[9, 2, 8]	19	0	0	0	n/a	n/a	0.0	0	0	0	FR2	0	R1070T
2367.885	0.009	3021563	STOP	n/a	n/a	n/a	-999	20	[-999, -999, -999]	n/a	0	0	0	n/a	n/a	0.0	0	0	0	FR2	0	R1070T
2367.894	1.167	3021572	DISTRACT_END	n/a	n/a	n/a	-999	20	[0, 0, 0]	n/a	0	0	0	n/a	n/a	0.0	0	0	0	FR2	0	R1070T
2369.061	1.447	3022739	REC_START	n/a	n/a	n/a	-999	20	[0, 0, 0]	n/a	0	0	0	n/a	n/a	0.0	0	0	0	FR2	0	R1070T
2370.508	1.956	3024186	REC_WORD	1.447	n/a	PANTALONES	-999	20	[0, 0, 0]	n/a	0	0	0	n/a	n/a	0.0	0	0	0	FR2	0	R1070T
2372.464	1.501	3026142	REC_WORD	3.403	n/a	CAMA	-999	20	[0, 0, 0]	n/a	0	0	0	n/a	n/a	0.0	0	0	0	FR2	0	R1070T
2373.965	25.109	3027643	REC_WORD	4.904	n/a	CARRO	-999	20	[0, 0, 0]	n/a	0	0	0	n/a	n/a	0.0	0	0	0	FR2	0	R1070T
2399.074	3.543	3052750	REC_END	n/a	n/a	n/a	-999	20	[0, 0, 0]	n/a	0	0	0	n/a	n/a	0.0	0	0	0	FR2	0	R1070T
2402.617	0.0	3056293	TRIAL	n/a	n/a	n/a	-999	21	[0, 0, 0]	n/a	0	1	0	n/a	n/a	0.0	0	0	0	FR2	0	R1070T
2402.617	10.0	3056293	COUNTDOWN_START	n/a	n/a	n/a	-999	21	[0, 0, 0]	n/a	0	1	0	n/a	n/a	0.0	0	0	0	FR2	0	R1070T
2413.045	0.007	3066721	COUNTDOWN_END	n/a	n/a	n/a	-999	21	[0, 0, 0]	n/a	0	1	0	n/a	n/a	0.0	0	0	0	FR2	0	R1070T
2413.052	1.6	3066728	ORIENT	n/a	n/a	n/a	-999	21	[0, 0, 0]	n/a	0	1	0	n/a	n/a	0.0	0	0	0	FR2	0	R1070T
2415.536	1.6	3069212	WORD	n/a	wordpools/wordpool_SP.txt	SOPA	1	21	[0, 0, 0]	n/a	0	1	0	n/a	n/a	0.0	0	0	0	FR2	0	R1070T
2418.003	1.6	3071678	WORD	n/a	wordpools/wordpool_SP.txt	EFECTIVO	2	21	[0, 0, 0]	n/a	0	1	0	n/a	n/a	0.0	0	0	0	FR2	0	R1070T
2420.29	4.6	3073965	STIM_ON	n/a	n/a	n/a	-999	21	[0, 0, 0]	n/a	1	1	4600	RB2	RB3	500.0	50	230	300	FR2	0	R1070T
2420.504	1.6	3074179	WORD	n/a	wordpools/wordpool_SP.txt	PALMA	3	21	[0, 0, 0]	n/a	1	1	4600	RB2	RB3	500.0	50	230	300	FR2	0	R1070T
2422.937	1.6	3076612	WORD	n/a	wordpools/wordpool_SP.txt	LLAVE	4	21	[0, 0, 0]	n/a	1	1	4600	RB2	RB3	500.0	50	230	300	FR2	0	R1070T
2425.489	1.6	3079164	WORD	n/a	wordpools/wordpool_SP.txt	TELARANA	5	21	[0, 0, 0]	n/a	0	1	0	n/a	n/a	0.0	0	0	0	FR2	0	R1070T
2427.971	1.6	3081646	WORD	n/a	wordpools/wordpool_SP.txt	RED	6	21	[0, 0, 0]	n/a	0	1	0	n/a	n/a	0.0	0	0	0	FR2	0	R1070T
2430.252	4.6	3083927	STIM_ON	n/a	n/a	n/a	-999	21	[0, 0, 0]	n/a	1	1	4600	RB2	RB3	500.0	50	230	300	FR2	0	R1070T
2430.456	1.6	3084131	WORD	n/a	wordpools/wordpool_SP.txt	REMO	7	21	[0, 0, 0]	n/a	1	1	4600	RB2	RB3	500.0	50	230	300	FR2	0	R1070T
2432.922	1.6	3086597	WORD	n/a	wordpools/wordpool_SP.txt	LECHE	8	21	[0, 0, 0]	n/a	1	1	4600	RB2	RB3	500.0	50	230	300	FR2	0	R1070T
2435.556	1.6	3089231	WORD	n/a	wordpools/wordpool_SP.txt	HALCON	9	21	[0, 0, 0]	n/a	0	1	0	n/a	n/a	0.0	0	0	0	FR2	0	R1070T
2437.99	1.6	3091664	WORD	n/a	wordpools/wordpool_SP.txt	PLANTA	10	21	[0, 0, 0]	n/a	0	1	0	n/a	n/a	0.0	0	0	0	FR2	0	R1070T
2440.289	4.6	3093963	STIM_ON	n/a	n/a	n/a	-999	21	[0, 0, 0]	n/a	1	1	4600	RB2	RB3	500.0	50	230	300	FR2	0	R1070T
2440.491	1.6	3094165	WORD	n/a	wordpools/wordpool_SP.txt	MURCIELAGO	11	21	[0, 0, 0]	n/a	1	1	4600	RB2	RB3	500.0	50	230	300	FR2	0	R1070T
2442.907	1.6	3096581	WORD	n/a	wordpools/wordpool_SP.txt	PASTEL	12	21	[0, 0, 0]	n/a	1	1	4600	RB2	RB3	500.0	50	230	300	FR2	0	R1070T
2444.508	0.001	3098182	DISTRACT_START	n/a	n/a	n/a	-999	21	[0, 0, 0]	n/a	1	1	4600	RB2	RB3	500.0	50	230	300	FR2	0	R1070T
2444.509	0.015	3098183	START	n/a	n/a	n/a	-999	21	[-999, -999, -999]	n/a	0	1	0	n/a	n/a	0.0	0	0	0	FR2	0	R1070T
2444.524	4.686	3098198	PROB	4.65	n/a	n/a	-999	21	[1, 3, 3]	7	0	1	0	n/a	n/a	0.0	0	0	0	FR2	0	R1070T
2449.21	3.399	3102884	PROB	3.379	n/a	n/a	-999	21	[1, 2, 5]	8	0	1	0	n/a	n/a	0.0	0	0	0	FR2	0	R1070T
2452.609	4.401	3106283	PROB	4.372	n/a	n/a	-999	21	[8, 1, 2]	11	0	1	0	n/a	n/a	0.0	0	0	0	FR2	0	R1070T
2457.01	3.517	3110684	PROB	3.492	n/a	n/a	-999	21	[4, 1, 9]	14	0	1	0	n/a	n/a	0.0	0	0	0	FR2	0	R1070T
2460.527	4.182	3114200	PROB	4.182	n/a	n/a	-999	21	[2, 9, 9]	20	0	1	0	n/a	n/a	0.0	0	0	0	FR2	0	R1070T
2464.709	0.019	3118382	STOP	n/a	n/a	n/a	-999	21	[-999, -999, -999]	n/a	0	1	0	n/a	n/a	0.0	0	0	0	FR2	0	R1070T
2464.728	1.167	3118401	DISTRACT_END	n/a	n/a	n/a	-999	21	[0, 0, 0]	n/a	0	1	0	n/a	n/a	0.0	0	0	0	FR2	0	R1070T
2465.895	1.634	3119568	REC_START	n/a	n/a	n/a	-999	21	[0, 0, 0]	n/a	0	1	0	n/a	n/a	0.0	0	0	0	FR2	0	R1070T
2467.529	1.92	3121202	REC_WORD	1.634	n/a	TELARANA	-999	21	[0, 0, 0]	n/a	0	1	0	n/a	n/a	0.0	0	0	0	FR2	0	R1070T
2469.449	1.479	3123122	REC_WORD	3.554	n/a	SOPA	-999	21	[0, 0, 0]	n/a	0	1	0	n/a	n/a	0.0	0	0	0	FR2	0	R1070T
2470.928	2.164	3124601	REC_WORD	5.033	n/a	PASTEL	-999	21	[0, 0, 0]	n/a	0	1	0	n/a	n/a	0.0	0	0	0	FR2	0	R1070T
2473.092	7.004	3126765	REC_WORD	7.197	n/a	MURCIELAGO	-999	21	[0, 0, 0]	n/a	0	1	0	n/a	n/a	0.0	0	0	0	FR2	0	R1070T
2480.096	15.813	3133768	REC_WORD	14.201	n/a	LECHE	-999	21	[0, 0, 0]	n/a	0	1	0	n/a	n/a	0.0	0	0	0	FR2	0	R1070T
2495.909	12.161	3149581	REC_END	n/a	n/a	n/a	-999	21	[0, 0, 0]	n/a	0	1	0	n/a	n/a	0.0	0	0	0	FR2	0	R1070T
2508.07	10.0	3161741	COUNTDOWN_START	n/a	n/a	n/a	-999	22	[0, 0, 0]	n/a	0	1	0	n/a	n/a	0.0	0	0	0	FR2	0	R1070T
2508.071	10.427	3161742	TRIAL	n/a	n/a	n/a	-999	22	[0, 0, 0]	n/a	0	1	0	n/a	n/a	0.0	0	0	0	FR2	0	R1070T
2518.498	0.008	3172169	COUNTDOWN_END	n/a	n/a	n/a	-999	22	[0, 0, 0]	n/a	0	1	0	n/a	n/a	0.0	0	0	0	FR2	0	R1070T
2518.506	1.6	3172177	ORIENT	n/a	n/a	n/a	-999	22	[0, 0, 0]	n/a	0	1	0	n/a	n/a	0.0	0	0	0	FR2	0	R1070T
2520.923	4.6	3174593	STIM_ON	n/a	n/a	n/a	-999	22	[0, 0, 0]	n/a	1	1	4600	RB2	RB3	500.0	50	230	300	FR2	0	R1070T
2521.139	1.6	3174809	WORD	n/a	wordpools/wordpool_SP.txt	OSO	1	22	[0, 0, 0]	n/a	1	1	4600	RB2	RB3	500.0	50	230	300	FR2	0	R1070T
2523.539	1.6	3177209	WORD	n/a	wordpools/wordpool_SP.txt	ZAPATO	2	22	[0, 0, 0]	n/a	1	1	4600	RB2	RB3	500.0	50	230	300	FR2	0	R1070T
2526.124	1.6	3179794	WORD	n/a	wordpools/wordpool_SP.txt	HUMO	3	22	[0, 0, 0]	n/a	0	1	0	n/a	n/a	0.0	0	0	0	FR2	0	R1070T
2528.64	1.6	3182310	WORD	n/a	wordpools/wordpool_SP.txt	CABALLO	4	22	[0, 0, 0]	n/a	0	1	0	n/a	n/a	0.0	0	0	0	FR2	0	R1070T
2530.976	4.6	3184646	STIM_ON	n/a	n/a	n/a	-999	22	[0, 0, 0]	n/a	1	1	4600	RB2	RB3	500.0	50	230	300	FR2	0	R1070T
2531.191	1.6	3184861	WORD	n/a	wordpools/wordpool_SP.txt	TALLO	5	22	[0, 0, 0]	n/a	1	1	4600	RB2	RB3	500.0	50	230	300	FR2	0	R1070T
2533.657	1.6	3187327	WORD	n/a	wordpools/wordpool_SP.txt	VELA	6	22	[0, 0, 0]	n/a	1	1	4600	RB2	RB3	500.0	50	230	300	FR2	0	R1070T
2536.142	1.6	3189812	WORD	n/a	wordpools/wordpool_SP.txt	DIENTES	7	22	[0, 0, 0]	n/a	0	1	0	n/a	n/a	0.0	0	0	0	FR2	0	R1070T
2538.525	1.6	3192195	WORD	n/a	wordpools/wordpool_SP.txt	RUBOR	8	22	[0, 0, 0]	n/a	0	1	0	n/a	n/a	0.0	0	0	0	FR2	0	R1070T
2540.702	4.6	3194371	STIM_ON	n/a	n/a	n/a	-999	22	[0, 0, 0]	n/a	1	1	4600	RB2	RB3	500.0	50	230	300	FR2	0	R1070T
2540.909	1.6	3194578	WORD	n/a	wordpools/wordpool_SP.txt	MASCOTA	9	22	[0, 0, 0]	n/a	1	1	4600	RB2	RB3	500.0	50	230	300	FR2	0	R1070T
2543.327	1.6	3196996	WORD	n/a	wordpools/wordpool_SP.txt	CASA	10	22	[0, 0, 0]	n/a	1	1	4600	RB2	RB3	500.0	50	230	300	FR2	0	R1070T
2545.726	1.6	3199395	WORD	n/a	wordpools/wordpool_SP.txt	PRINCIPE	11	22	[0, 0, 0]	n/a	0	1	0	n/a	n/a	0.0	0	0	0	FR2	0	R1070T
2548.311	1.6	3201980	WORD	n/a	wordpools/wordpool_SP.txt	NINO	12	22	[0, 0, 0]	n/a	0	1	0	n/a	n/a	0.0	0	0	0	FR2	0	R1070T
2549.927	0.001	3203596	DISTRACT_START	n/a	n/a	n/a	-999	22	[0, 0, 0]	n/a	0	1	0	n/a	n/a	0.0	0	0	0	FR2	0	R1070T
2549.928	0.016	3203597	START	n/a	n/a	n/a	-999	22	[-999, -999, -999]	n/a	0	1	0	n/a	n/a	0.0	0	0	0	FR2	0	R1070T
2549.944	6.418	3203613	PROB	6.383	n/a	n/a	-999	22	[7, 2, 1]	10	0	1	0	n/a	n/a	0.0	0	0	0	FR2	0	R1070T
2556.362	5.7	3210031	PROB	5.667	n/a	n/a	-999	22	[7, 3, 3]	13	0	1	0	n/a	n/a	0.0	0	0	0	FR2	0	R1070T
2562.062	5.652	3215730	PROB	5.632	n/a	n/a	-999	22	[5, 7, 1]	13	0	1	0	n/a	n/a	0.0	0	0	0	FR2	0	R1070T
2567.714	5.875	3221382	PROB	5.875	n/a	n/a	-999	22	[6, 9, 4]	19	0	1	0	n/a	n/a	0.0	0	0	0	FR2	0	R1070T
2573.589	0.009	3227257	STOP	n/a	n/a	n/a	-999	22	[-999, -999, -999]	n/a	0	1	0	n/a	n/a	0.0	0	0	0	FR2	0	R1070T
2573.598	1.084	3227266	DISTRACT_END	n/a	n/a	n/a	-999	22	[0, 0, 0]	n/a	0	1	0	n/a	n/a	0.0	0	0	0	FR2	0	R1070T
2574.682	0.89	3228350	REC_START	n/a	n/a	n/a	-999	22	[0, 0, 0]	n/a	0	1	0	n/a	n/a	0.0	0	0	0	FR2	0	R1070T
2575.572	3.513	3229240	REC_WORD	0.89	n/a	OSO	-999	22	[0, 0, 0]	n/a	0	1	0	n/a	n/a	0.0	0	0	0	FR2	0	R1070T
2579.085	3.733	3232753	REC_WORD	4.403	n/a	MURCIELAGO	-999	22	[0, 0, 0]	n/a	0	1	0	n/a	n/a	0.0	0	0	0	FR2	0	R1070T
2582.818	11.402	3236485	REC_WORD	8.136	n/a	ZAPATO	-999	22	[0, 0, 0]	n/a	0	1	0	n/a	n/a	0.0	0	0	0	FR2	0	R1070T
2594.22	10.472	3247887	REC_WORD	19.538	n/a	CABALLO	-999	22	[0, 0, 0]	n/a	0	1	0	n/a	n/a	0.0	0	0	0	FR2	0	R1070T
2604.692	7.93	3258358	REC_END	n/a	n/a	n/a	-999	22	[0, 0, 0]	n/a	0	1	0	n/a	n/a	0.0	0	0	0	FR2	0	R1070T
2612.622	0.0	3266288	TRIAL	n/a	n/a	n/a	-999	23	[0, 0, 0]	n/a	0	1	0	n/a	n/a	0.0	0	0	0	FR2	0	R1070T
2612.622	10.0	3266288	COUNTDOWN_START	n/a	n/a	n/a	-999	23	[0, 0, 0]	n/a	0	1	0	n/a	n/a	0.0	0	0	0	FR2	0	R1070T
2623.05	0.007	3276715	COUNTDOWN_END	n/a	n/a	n/a	-999	23	[0, 0, 0]	n/a	0	1	0	n/a	n/a	0.0	0	0	0	FR2	0	R1070T
2623.057	1.6	3276722	ORIENT	n/a	n/a	n/a	-999	23	[0, 0, 0]	n/a	0	1	0	n/a	n/a	0.0	0	0	0	FR2	0	R1070T
2625.641	1.6	3279306	WORD	n/a	wordpools/wordpool_SP.txt	BOLIGRAFO	1	23	[0, 0, 0]	n/a	0	1	0	n/a	n/a	0.0	0	0	0	FR2	0	R1070T
2628.108	1.6	3281773	WORD	n/a	wordpools/wordpool_SP.txt	OVEJA	2	23	[0, 0, 0]	n/a	0	1	0	n/a	n/a	0.0	0	0	0	FR2	0	R1070T
2630.459	4.6	3284124	STIM_ON	n/a	n/a	n/a	-999	23	[0, 0, 0]	n/a	1	1	4600	RB2	RB3	500.0	50	230	300	FR2	0	R1070T
2630.675	1.6	3284340	WORD	n/a	wordpools/wordpool_SP.txt	LIBRO	3	23	[0, 0, 0]	n/a	1	1	4600	RB2	RB3	500.0	50	230	300	FR2	0	R1070T
2633.16	1.6	3286825	WORD	n/a	wordpools/wordpool_SP.txt	CIELO	4	23	[0, 0, 0]	n/a	1	1	4600	RB2	RB3	500.0	50	230	300	FR2	0	R1070T
2635.626	1.6	3289291	WORD	n/a	wordpools/wordpool_SP.txt	BANDERA	5	23	[0, 0, 0]	n/a	0	1	0	n/a	n/a	0.0	0	0	0	FR2	0	R1070T
2638.094	1.6	3291759	WORD	n/a	wordpools/wordpool_SP.txt	ESCALERA	6	23	[0, 0, 0]	n/a	0	1	0	n/a	n/a	0.0	0	0	0	FR2	0	R1070T
2640.386	4.6	3294051	STIM_ON	n/a	n/a	n/a	-999	23	[0, 0, 0]	n/a	1	1	4600	RB2	RB3	500.0	50	230	300	FR2	0	R1070T
2640.593	1.6	3294258	WORD	n/a	wordpools/wordpool_SP.txt	DULCE	7	23	[0, 0, 0]	n/a	1	1	4600	RB2	RB3	500.0	50	230	300	FR2	0	R1070T
2643.027	1.6	3296691	WORD	n/a	wordpools/wordpool_SP.txt	MANO	8	23	[0, 0, 0]	n/a	1	1	4600	RB2	RB3	500.0	50	230	300	FR2	0	R1070T
2645.462	1.6	3299126	WORD	n/a	wordpools/wordpool_SP.txt	BARRO	9	23	[0, 0, 0]	n/a	0	1	0	n/a	n/a	0.0	0	0	0	FR2	0	R1070T
2647.895	1.6	3301559	WORD	n/a	wordpools/wordpool_SP.txt	MUNECO	10	23	[0, 0, 0]	n/a	0	1	0	n/a	n/a	0.0	0	0	0	FR2	0	R1070T
2650.081	4.6	3303745	STIM_ON	n/a	n/a	n/a	-999	23	[0, 0, 0]	n/a	1	1	4600	RB2	RB3	500.0	50	230	300	FR2	0	R1070T
2650.296	1.6	3303960	WORD	n/a	wordpools/wordpool_SP.txt	ESCOBA	11	23	[0, 0, 0]	n/a	1	1	4600	RB2	RB3	500.0	50	230	300	FR2	0	R1070T
2652.812	1.6	3306476	WORD	n/a	wordpools/wordpool_SP.txt	FUERTE	12	23	[0, 0, 0]	n/a	1	1	4600	RB2	RB3	500.0	50	230	300	FR2	0	R1070T
2654.414	0.001	3308078	DISTRACT_START	n/a	n/a	n/a	-999	23	[0, 0, 0]	n/a	1	1	4600	RB2	RB3	500.0	50	230	300	FR2	0	R1070T
2654.415	0.015	3308079	START	n/a	n/a	n/a	-999	23	[-999, -999, -999]	n/a	0	1	0	n/a	n/a	0.0	0	0	0	FR2	0	R1070T
2654.43	24.207	3308094	PROB	24.207	n/a	n/a	-999	23	[3, 4, 6]	13	0	1	0	n/a	n/a	0.0	0	0	0	FR2	0	R1070T
2678.637	0.013	3332300	STOP	n/a	n/a	n/a	-999	23	[-999, -999, -999]	n/a	0	1	0	n/a	n/a	0.0	0	0	0	FR2	0	R1070T
2678.65	1.152	3332313	DISTRACT_END	n/a	n/a	n/a	-999	23	[0, 0, 0]	n/a	0	1	0	n/a	n/a	0.0	0	0	0	FR2	0	R1070T
2679.802	1.196	3333465	REC_START	n/a	n/a	n/a	-999	23	[0, 0, 0]	n/a	0	1	0	n/a	n/a	0.0	0	0	0	FR2	0	R1070T
2680.998	5.794	3334661	REC_WORD	1.196	n/a	ESCOBA	-999	23	[0, 0, 0]	n/a	0	1	0	n/a	n/a	0.0	0	0	0	FR2	0	R1070T
2686.792	3.952	3340454	REC_WORD	6.99	n/a	BANDERA	-999	23	[0, 0, 0]	n/a	0	1	0	n/a	n/a	0.0	0	0	0	FR2	0	R1070T
2690.744	19.069	3344406	REC_WORD	10.942	n/a	MAPA	-999	23	[0, 0, 0]	n/a	0	1	0	n/a	n/a	0.0	0	0	0	FR2	0	R1070T
2709.813	5.86	3363474	REC_END	n/a	n/a	n/a	-999	23	[0, 0, 0]	n/a	0	1	0	n/a	n/a	0.0	0	0	0	FR2	0	R1070T
2715.673	10.0	3369334	COUNTDOWN_START	n/a	n/a	n/a	-999	24	[0, 0, 0]	n/a	0	0	0	n/a	n/a	0.0	0	0	0	FR2	0	R1070T
2715.674	10.427	3369335	TRIAL	n/a	n/a	n/a	-999	24	[0, 0, 0]	n/a	0	0	0	n/a	n/a	0.0	0	0	0	FR2	0	R1070T
2726.101	0.009	3379761	COUNTDOWN_END	n/a	n/a	n/a	-999	24	[0, 0, 0]	n/a	0	0	0	n/a	n/a	0.0	0	0	0	FR2	0	R1070T
2726.11	1.6	3379770	ORIENT	n/a	n/a	n/a	-999	24	[0, 0, 0]	n/a	0	0	0	n/a	n/a	0.0	0	0	0	FR2	0	R1070T
2728.676	1.6	3382336	WORD	n/a	wordpools/wordpool_SP.txt	RATA	1	24	[0, 0, 0]	n/a	0	0	0	n/a	n/a	0.0	0	0	0	FR2	0	R1070T
2731.128	1.6	3384788	WORD	n/a	wordpools/wordpool_SP.txt	TENEDOR	2	24	[0, 0, 0]	n/a	0	0	0	n/a	n/a	0.0	0	0	0	FR2	0	R1070T
2733.693	1.6	3387353	WORD	n/a	wordpools/wordpool_SP.txt	PULGA	3	24	[0, 0, 0]	n/a	0	0	0	n/a	n/a	0.0	0	0	0	FR2	0	R1070T
2736.228	1.6	3389888	WORD	n/a	wordpools/wordpool_SP.txt	CARACOL	4	24	[0, 0, 0]	n/a	0	0	0	n/a	n/a	0.0	0	0	0	FR2	0	R1070T
2738.811	1.6	3392471	WORD	n/a	wordpools/wordpool_SP.txt	RELOJ	5	24	[0, 0, 0]	n/a	0	0	0	n/a	n/a	0.0	0	0	0	FR2	0	R1070T
2741.246	1.6	3394906	WORD	n/a	wordpools/wordpool_SP.txt	ROCA	6	24	[0, 0, 0]	n/a	0	0	0	n/a	n/a	0.0	0	0	0	FR2	0	R1070T
2743.812	1.6	3397471	WORD	n/a	wordpools/wordpool_SP.txt	PASTA	7	24	[0, 0, 0]	n/a	0	0	0	n/a	n/a	0.0	0	0	0	FR2	0	R1070T
2746.197	1.6	3399856	WORD	n/a	wordpools/wordpool_SP.txt	PATO	8	24	[0, 0, 0]	n/a	0	0	0	n/a	n/a	0.0	0	0	0	FR2	0	R1070T
2748.696	1.6	3402355	WORD	n/a	wordpools/wordpool_SP.txt	CERDO	9	24	[0, 0, 0]	n/a	0	0	0	n/a	n/a	0.0	0	0	0	FR2	0	R1070T
2751.148	1.6	3404807	WORD	n/a	wordpools/wordpool_SP.txt	CRIA	10	24	[0, 0, 0]	n/a	0	0	0	n/a	n/a	0.0	0	0	0	FR2	0	R1070T
2753.647	1.6	3407306	WORD	n/a	wordpools/wordpool_SP.txt	CUEVA	11	24	[0, 0, 0]	n/a	0	0	0	n/a	n/a	0.0	0	0	0	FR2	0	R1070T
2756.249	1.6	3409908	WORD	n/a	wordpools/wordpool_SP.txt	JUGUETE	12	24	[0, 0, 0]	n/a	0	0	0	n/a	n/a	0.0	0	0	0	FR2	0	R1070T
2757.865	0.001	3411524	DISTRACT_START	n/a	n/a	n/a	-999	24	[0, 0, 0]	n/a	0	0	0	n/a	n/a	0.0	0	0	0	FR2	0	R1070T
2757.866	0.015	3411525	START	n/a	n/a	n/a	-999	24	[-999, -999, -999]	n/a	0	0	0	n/a	n/a	0.0	0	0	0	FR2	0	R1070T
2757.881	5.336	3411540	PROB	5.301	n/a	n/a	-999	24	[3, 1, 8]	12	0	0	0	n/a	n/a	0.0	0	0	0	FR2	0	R1070T
2763.217	5.683	3416876	PROB	5.653	n/a	n/a	-999	24	[2, 5, 6]	13	0	0	0	n/a	n/a	0.0	0	0	0	FR2	0	R1070T
2768.9	6.502	3422558	PROB	6.482	n/a	n/a	-999	24	[4, 4, 9]	17	0	0	0	n/a	n/a	0.0	0	0	0	FR2	0	R1070T
2775.402	12.491	3429060	PROB	12.491	n/a	n/a	-999	24	[5, 4, 7]	15	0	0	0	n/a	n/a	0.0	0	0	0	FR2	0	R1070T
2787.893	0.011	3441550	STOP	n/a	n/a	n/a	-999	24	[-999, -999, -999]	n/a	0	0	0	n/a	n/a	0.0	0	0	0	FR2	0	R1070T
2787.904	1.101	3441561	DISTRACT_END	n/a	n/a	n/a	-999	24	[0, 0, 0]	n/a	0	0	0	n/a	n/a	0.0	0	0	0	FR2	0	R1070T
2789.005	2.23	3442662	REC_START	n/a	n/a	n/a	-999	24	[0, 0, 0]	n/a	0	0	0	n/a	n/a	0.0	0	0	0	FR2	0	R1070T
2791.235	4.43	3444892	REC_WORD	2.23	n/a	ENTRADA	-999	24	[0, 0, 0]	n/a	0	0	0	n/a	n/a	0.0	0	0	0	FR2	0	R1070T
2795.665	16.557	3449322	REC_WORD	6.66	n/a	HORMIGA	-999	24	[0, 0, 0]	n/a	0	0	0	n/a	n/a	0.0	0	0	0	FR2	0	R1070T
2812.222	6.793	3465878	REC_WORD	23.217	n/a	PULGA	-999	24	[0, 0, 0]	n/a	0	0	0	n/a	n/a	0.0	0	0	0	FR2	0	R1070T
2819.015	16.831	3472671	REC_END	n/a	n/a	n/a	-999	24	[0, 0, 0]	n/a	0	0	0	n/a	n/a	0.0	0	0	0	FR2	0	R1070T
2835.846	0.0	3489501	TRIAL	n/a	n/a	n/a	-999	25	[0, 0, 0]	n/a	0	1	0	n/a	n/a	0.0	0	0	0	FR2	0	R1070T
2835.846	10.0	3489501	COUNTDOWN_START	n/a	n/a	n/a	-999	25	[0, 0, 0]	n/a	0	1	0	n/a	n/a	0.0	0	0	0	FR2	0	R1070T
2846.274	0.008	3499928	COUNTDOWN_END	n/a	n/a	n/a	-999	25	[0, 0, 0]	n/a	0	1	0	n/a	n/a	0.0	0	0	0	FR2	0	R1070T
2846.282	1.6	3499936	ORIENT	n/a	n/a	n/a	-999	25	[0, 0, 0]	n/a	0	1	0	n/a	n/a	0.0	0	0	0	FR2	0	R1070T
2848.798	1.6	3502452	WORD	n/a	wordpools/wordpool_SP.txt	ARROZ	1	25	[0, 0, 0]	n/a	0	1	0	n/a	n/a	0.0	0	0	0	FR2	0	R1070T
2851.166	1.6	3504820	WORD	n/a	wordpools/wordpool_SP.txt	RASTRILLO	2	25	[0, 0, 0]	n/a	0	1	0	n/a	n/a	0.0	0	0	0	FR2	0	R1070T
2853.401	4.6	3507055	STIM_ON	n/a	n/a	n/a	-999	25	[0, 0, 0]	n/a	1	1	4600	RB2	RB3	500.0	50	230	300	FR2	0	R1070T
2853.615	1.6	3507269	WORD	n/a	wordpools/wordpool_SP.txt	HOYO	3	25	[0, 0, 0]	n/a	1	1	4600	RB2	RB3	500.0	50	230	300	FR2	0	R1070T
2856.184	1.6	3509838	WORD	n/a	wordpools/wordpool_SP.txt	TAPETE	4	25	[0, 0, 0]	n/a	1	1	4600	RB2	RB3	500.0	50	230	300	FR2	0	R1070T
2858.6	1.6	3512254	WORD	n/a	wordpools/wordpool_SP.txt	BOCA	5	25	[0, 0, 0]	n/a	0	1	0	n/a	n/a	0.0	0	0	0	FR2	0	R1070T
2861.201	1.6	3514855	WORD	n/a	wordpools/wordpool_SP.txt	SOL	6	25	[0, 0, 0]	n/a	0	1	0	n/a	n/a	0.0	0	0	0	FR2	0	R1070T
2863.612	4.6	3517266	STIM_ON	n/a	n/a	n/a	-999	25	[0, 0, 0]	n/a	1	1	4600	RB2	RB3	500.0	50	230	300	FR2	0	R1070T
2863.817	1.6	3517471	WORD	n/a	wordpools/wordpool_SP.txt	VASO	7	25	[0, 0, 0]	n/a	1	1	4600	RB2	RB3	500.0	50	230	300	FR2	0	R1070T
2866.285	1.6	3519938	WORD	n/a	wordpools/wordpool_SP.txt	JABON	8	25	[0, 0, 0]	n/a	1	1	4600	RB2	RB3	500.0	50	230	300	FR2	0	R1070T
2868.752	1.6	3522405	WORD	n/a	wordpools/wordpool_SP.txt	HUEVO	9	25	[0, 0, 0]	n/a	0	1	0	n/a	n/a	0.0	0	0	0	FR2	0	R1070T
2871.336	1.6	3524989	WORD	n/a	wordpools/wordpool_SP.txt	RAMA	10	25	[0, 0, 0]	n/a	0	1	0	n/a	n/a	0.0	0	0	0	FR2	0	R1070T
2873.51	4.6	3527163	STIM_ON	n/a	n/a	n/a	-999	25	[0, 0, 0]	n/a	1	1	4600	RB2	RB3	500.0	50	230	300	FR2	0	R1070T
2873.719	1.6	3527372	WORD	n/a	wordpools/wordpool_SP.txt	ALCES	11	25	[0, 0, 0]	n/a	1	1	4600	RB2	RB3	500.0	50	230	300	FR2	0	R1070T
2876.321	1.6	3529974	WORD	n/a	wordpools/wordpool_SP.txt	GUSANO	12	25	[0, 0, 0]	n/a	1	1	4600	RB2	RB3	500.0	50	230	300	FR2	0	R1070T
2877.937	0.001	3531590	DISTRACT_START	n/a	n/a	n/a	-999	25	[0, 0, 0]	n/a	1	1	4600	RB2	RB3	500.0	50	230	300	FR2	0	R1070T
2877.938	0.015	3531591	START	n/a	n/a	n/a	-999	25	[-999, -999, -999]	n/a	0	1	0	n/a	n/a	0.0	0	0	0	FR2	0	R1070T
2877.953	5.235	3531606	PROB	5.205	n/a	n/a	-999	25	[1, 8, 9]	18	0	1	0	n/a	n/a	0.0	0	0	0	FR2	0	R1070T
2883.188	4.85	3536841	PROB	4.818	n/a	n/a	-999	25	[7, 2, 8]	17	0	1	0	n/a	n/a	0.0	0	0	0	FR2	0	R1070T
2888.038	9.036	3541690	PROB	8.999	n/a	n/a	-999	25	[6, 7, 8]	21	0	1	0	n/a	n/a	0.0	0	0	0	FR2	0	R1070T
2897.074	4.38	3550726	PROB	4.38	n/a	n/a	-999	25	[3, 5, 3]	11	0	1	0	n/a	n/a	0.0	0	0	0	FR2	0	R1070T
2901.454	0.004	3555106	STOP	n/a	n/a	n/a	-999	25	[-999, -999, -999]	n/a	0	1	0	n/a	n/a	0.0	0	0	0	FR2	0	R1070T
2901.458	1.084	3555110	DISTRACT_END	n/a	n/a	n/a	-999	25	[0, 0, 0]	n/a	0	1	0	n/a	n/a	0.0	0	0	0	FR2	0	R1070T
2902.542	0.756	3556194	REC_START	n/a	n/a	n/a	-999	25	[0, 0, 0]	n/a	0	1	0	n/a	n/a	0.0	0	0	0	FR2	0	R1070T
2903.298	0.8	3556950	REC_WORD	0.756	n/a	HUEVO	-999	25	[0, 0, 0]	n/a	0	1	0	n/a	n/a	0.0	0	0	0	FR2	0	R1070T
2904.098	1.173	3557750	REC_WORD	1.556	n/a	RASTRILLO	-999	25	[0, 0, 0]	n/a	0	1	0	n/a	n/a	0.0	0	0	0	FR2	0	R1070T
2905.271	4.411	3558923	REC_WORD	2.729	n/a	ARROZ	-999	25	[0, 0, 0]	n/a	0	1	0	n/a	n/a	0.0	0	0	0	FR2	0	R1070T
2909.682	2.552	3563333	REC_WORD	7.14	n/a	VASO	-999	25	[0, 0, 0]	n/a	0	1	0	n/a	n/a	0.0	0	0	0	FR2	0	R1070T
2912.234	12.065	3565885	REC_WORD	9.692	n/a	HUEVO	-999	25	[0, 0, 0]	n/a	0	1	0	n/a	n/a	0.0	0	0	0	FR2	0	R1070T
2924.299	8.253	3577950	REC_WORD	21.757	n/a	GRANJA	-999	25	[0, 0, 0]	n/a	0	1	0	n/a	n/a	0.0	0	0	0	FR2	0	R1070T
2932.552	8.363	3586202	REC_END	n/a	n/a	n/a	-999	25	[0, 0, 0]	n/a	0	1	0	n/a	n/a	0.0	0	0	0	FR2	0	R1070T
2940.915	0.0	3594565	SESS_END	n/a	n/a	n/a	-999	25	[0, 0, 0]	n/a	0	1	0	n/a	n/a	0.0	0	0	0	FR2	0	R1070T
