onset	duration	sample	trial_type	response_time	stim_file	item_name	serialpos	list	test	answer	stimulation	stim_list	stim_duration	anode_label	cathode_label	amplitude	pulse_freq	n_pulses	pulse_width	experiment	session	subject
0.0	15.289	972426	SESS_START	n/a	n/a	n/a	-999	-999	[0, 0, 0]	n/a	0	0	0	n/a	n/a	0.0	0	0	0	FR2	5	R1030J
15.289	10.0	987715	COUNTDOWN_START	n/a	n/a	n/a	-999	-999	[0, 0, 0]	n/a	0	0	0	n/a	n/a	0.0	0	0	0	FR2	5	R1030J
25.717	3.811	998142	COUNTDOWN_END	n/a	n/a	n/a	-999	-999	[0, 0, 0]	n/a	0	0	0	n/a	n/a	0.0	0	0	0	FR2	5	R1030J
29.528	1.6	1001953	PRACTICE_WORD	n/a	n/a	RHINO	1	-1	[0, 0, 0]	n/a	0	0	0	n/a	n/a	0.0	0	0	0	FR2	5	R1030J
32.15	1.6	1004575	PRACTICE_WORD	n/a	n/a	COTTON	2	-1	[0, 0, 0]	n/a	0	0	0	n/a	n/a	0.0	0	0	0	FR2	5	R1030J
34.67	1.6	1007095	PRACTICE_WORD	n/a	n/a	TONGUE	3	-1	[0, 0, 0]	n/a	0	0	0	n/a	n/a	0.0	0	0	0	FR2	5	R1030J
37.108	1.6	1009533	PRACTICE_WORD	n/a	n/a	RING	4	-1	[0, 0, 0]	n/a	0	0	0	n/a	n/a	0.0	0	0	0	FR2	5	R1030J
39.595	1.6	1012020	PRACTICE_WORD	n/a	n/a	CHEST	5	-1	[0, 0, 0]	n/a	0	0	0	n/a	n/a	0.0	0	0	0	FR2	5	R1030J
42.05	1.6	1014475	PRACTICE_WORD	n/a	n/a	IRON	6	-1	[0, 0, 0]	n/a	0	0	0	n/a	n/a	0.0	0	0	0	FR2	5	R1030J
44.504	1.6	1016929	PRACTICE_WORD	n/a	n/a	WATCH	7	-1	[0, 0, 0]	n/a	0	0	0	n/a	n/a	0.0	0	0	0	FR2	5	R1030J
47.025	1.6	1019450	PRACTICE_WORD	n/a	n/a	FLOOD	8	-1	[0, 0, 0]	n/a	0	0	0	n/a	n/a	0.0	0	0	0	FR2	5	R1030J
49.612	1.6	1022037	PRACTICE_WORD	n/a	n/a	BEAM	9	-1	[0, 0, 0]	n/a	0	0	0	n/a	n/a	0.0	0	0	0	FR2	5	R1030J
52.1	1.6	1024525	PRACTICE_WORD	n/a	n/a	CAMEL	10	-1	[0, 0, 0]	n/a	0	0	0	n/a	n/a	0.0	0	0	0	FR2	5	R1030J
54.57	1.6	1026995	PRACTICE_WORD	n/a	n/a	WAGON	11	-1	[0, 0, 0]	n/a	0	0	0	n/a	n/a	0.0	0	0	0	FR2	5	R1030J
57.058	1.6	1029483	PRACTICE_WORD	n/a	n/a	ATTIC	12	-1	[0, 0, 0]	n/a	0	0	0	n/a	n/a	0.0	0	0	0	FR2	5	R1030J
58.677	0.0	1031102	PRACTICE_DISTRACT_START	n/a	n/a	n/a	-999	-1	[0, 0, 0]	n/a	0	0	0	n/a	n/a	0.0	0	0	0	FR2	5	R1030J
58.677	0.351	1031102	START	n/a	n/a	n/a	-999	-1	[-999, -999, -999]	n/a	0	0	0	n/a	n/a	0.0	0	0	0	FR2	5	R1030J
59.028	3.907	1031453	PROB	3.872	n/a	n/a	-999	-1	[7, 4, 8]	19	0	0	0	n/a	n/a	0.0	0	0	0	FR2	5	R1030J
62.935	2.337	1035360	PROB	2.309	n/a	n/a	-999	-1	[9, 4, 6]	19	0	0	0	n/a	n/a	0.0	0	0	0	FR2	5	R1030J
65.272	2.286	1037697	PROB	2.251	n/a	n/a	-999	-1	[1, 6, 4]	11	0	0	0	n/a	n/a	0.0	0	0	0	FR2	5	R1030J
67.558	4.041	1039983	PROB	4.013	n/a	n/a	-999	-1	[3, 2, 9]	14	0	0	0	n/a	n/a	0.0	0	0	0	FR2	5	R1030J
71.599	3.456	1044024	PROB	3.421	n/a	n/a	-999	-1	[4, 5, 4]	13	0	0	0	n/a	n/a	0.0	0	0	0	FR2	5	R1030J
75.055	2.504	1047480	PROB	2.476	n/a	n/a	-999	-1	[9, 9, 4]	22	0	0	0	n/a	n/a	0.0	0	0	0	FR2	5	R1030J
77.559	2.757	1049984	PROB	2.757	n/a	n/a	-999	-1	[8, 5, 7]	20	0	0	0	n/a	n/a	0.0	0	0	0	FR2	5	R1030J
80.316	0.015	1052741	STOP	n/a	n/a	n/a	-999	-1	[-999, -999, -999]	n/a	0	0	0	n/a	n/a	0.0	0	0	0	FR2	5	R1030J
80.331	0.686	1052756	PRACTICE_DISTRACT_END	n/a	n/a	n/a	-999	-1	[0, 0, 0]	n/a	0	0	0	n/a	n/a	0.0	0	0	0	FR2	5	R1030J
81.017	30.515	1053442	PRACTICE_REC_START	n/a	n/a	n/a	-999	-1	[0, 0, 0]	n/a	0	0	0	n/a	n/a	0.0	0	0	0	FR2	5	R1030J
111.532	6.027	1083957	PRACTICE_REC_END	n/a	n/a	n/a	-999	-1	[0, 0, 0]	n/a	0	0	0	n/a	n/a	0.0	0	0	0	FR2	5	R1030J
117.559	10.0	1089984	COUNTDOWN_START	n/a	n/a	n/a	-999	1	[0, 0, 0]	n/a	0	1	0	n/a	n/a	0.0	0	0	0	FR2	5	R1030J
117.56	10.427	1089985	TRIAL	n/a	n/a	n/a	-999	1	[0, 0, 0]	n/a	0	1	0	n/a	n/a	0.0	0	0	0	FR2	5	R1030J
127.987	0.007	1100411	COUNTDOWN_END	n/a	n/a	n/a	-999	1	[0, 0, 0]	n/a	0	1	0	n/a	n/a	0.0	0	0	0	FR2	5	R1030J
127.994	1.6	1100418	ORIENT	n/a	n/a	n/a	-999	1	[0, 0, 0]	n/a	0	1	0	n/a	n/a	0.0	0	0	0	FR2	5	R1030J
130.581	1.6	1103005	WORD	n/a	wordpools/wordpool_EN.txt	STORM	1	1	[0, 0, 0]	n/a	0	1	0	n/a	n/a	0.0	0	0	0	FR2	5	R1030J
133.12	1.6	1105544	WORD	n/a	wordpools/wordpool_EN.txt	PEN	2	1	[0, 0, 0]	n/a	0	1	0	n/a	n/a	0.0	0	0	0	FR2	5	R1030J
135.482	4.6	1107906	STIM_ON	n/a	n/a	n/a	-999	1	[0, 0, 0]	n/a	1	1	4600	LQ2	LQ3	500.0	50	230	300	FR2	5	R1030J
135.691	1.6	1108115	WORD	n/a	wordpools/wordpool_EN.txt	OAK	3	1	[0, 0, 0]	n/a	1	1	4600	LQ2	LQ3	500.0	50	230	300	FR2	5	R1030J
138.111	1.6	1110535	WORD	n/a	wordpools/wordpool_EN.txt	BRUSH	4	1	[0, 0, 0]	n/a	1	1	4600	LQ2	LQ3	500.0	50	230	300	FR2	5	R1030J
140.665	1.6	1113089	WORD	n/a	wordpools/wordpool_EN.txt	SOAP	5	1	[0, 0, 0]	n/a	0	1	0	n/a	n/a	0.0	0	0	0	FR2	5	R1030J
143.086	1.6	1115510	WORD	n/a	wordpools/wordpool_EN.txt	PASTE	6	1	[0, 0, 0]	n/a	0	1	0	n/a	n/a	0.0	0	0	0	FR2	5	R1030J
145.475	4.6	1117899	STIM_ON	n/a	n/a	n/a	-999	1	[0, 0, 0]	n/a	1	1	4600	LQ2	LQ3	500.0	50	230	300	FR2	5	R1030J
145.69	1.6	1118114	WORD	n/a	wordpools/wordpool_EN.txt	CAT	7	1	[0, 0, 0]	n/a	1	1	4600	LQ2	LQ3	500.0	50	230	300	FR2	5	R1030J
148.228	1.6	1120652	WORD	n/a	wordpools/wordpool_EN.txt	WHALE	8	1	[0, 0, 0]	n/a	1	1	4600	LQ2	LQ3	500.0	50	230	300	FR2	5	R1030J
150.749	1.6	1123173	WORD	n/a	wordpools/wordpool_EN.txt	MAIL	9	1	[0, 0, 0]	n/a	0	1	0	n/a	n/a	0.0	0	0	0	FR2	5	R1030J
153.32	1.6	1125744	WORD	n/a	wordpools/wordpool_EN.txt	RAKE	10	1	[0, 0, 0]	n/a	0	1	0	n/a	n/a	0.0	0	0	0	FR2	5	R1030J
155.622	4.6	1128046	STIM_ON	n/a	n/a	n/a	-999	1	[0, 0, 0]	n/a	1	1	4600	LQ2	LQ3	500.0	50	230	300	FR2	5	R1030J
155.841	1.6	1128265	WORD	n/a	wordpools/wordpool_EN.txt	DOG	11	1	[0, 0, 0]	n/a	1	1	4600	LQ2	LQ3	500.0	50	230	300	FR2	5	R1030J
158.362	1.6	1130786	WORD	n/a	wordpools/wordpool_EN.txt	TREE	12	1	[0, 0, 0]	n/a	1	1	4600	LQ2	LQ3	500.0	50	230	300	FR2	5	R1030J
159.982	0.0	1132406	DISTRACT_START	n/a	n/a	n/a	-999	1	[0, 0, 0]	n/a	1	1	4600	LQ2	LQ3	500.0	50	230	300	FR2	5	R1030J
159.982	0.016	1132406	START	n/a	n/a	n/a	-999	1	[-999, -999, -999]	n/a	0	1	0	n/a	n/a	0.0	0	0	0	FR2	5	R1030J
159.998	2.972	1132422	PROB	2.939	n/a	n/a	-999	1	[2, 5, 6]	13	0	1	0	n/a	n/a	0.0	0	0	0	FR2	5	R1030J
162.97	4.124	1135394	PROB	4.094	n/a	n/a	-999	1	[8, 8, 7]	23	0	1	0	n/a	n/a	0.0	0	0	0	FR2	5	R1030J
167.094	2.12	1139518	PROB	2.098	n/a	n/a	-999	1	[4, 4, 2]	10	0	1	0	n/a	n/a	0.0	0	0	0	FR2	5	R1030J
169.214	2.353	1141638	PROB	2.329	n/a	n/a	-999	1	[4, 1, 5]	10	0	1	0	n/a	n/a	0.0	0	0	0	FR2	5	R1030J
171.567	1.986	1143991	PROB	1.96	n/a	n/a	-999	1	[6, 6, 6]	18	0	1	0	n/a	n/a	0.0	0	0	0	FR2	5	R1030J
173.553	2.522	1145977	PROB	2.488	n/a	n/a	-999	1	[7, 7, 6]	20	0	1	0	n/a	n/a	0.0	0	0	0	FR2	5	R1030J
176.075	3.289	1148499	PROB	3.261	n/a	n/a	-999	1	[4, 4, 9]	17	0	1	0	n/a	n/a	0.0	0	0	0	FR2	5	R1030J
179.364	2.941	1151788	PROB	2.941	n/a	n/a	-999	1	[3, 7, 7]	17	0	1	0	n/a	n/a	0.0	0	0	0	FR2	5	R1030J
182.305	0.014	1154729	STOP	n/a	n/a	n/a	-999	1	[-999, -999, -999]	n/a	0	1	0	n/a	n/a	0.0	0	0	0	FR2	5	R1030J
182.319	1.27	1154743	DISTRACT_END	n/a	n/a	n/a	-999	1	[0, 0, 0]	n/a	0	1	0	n/a	n/a	0.0	0	0	0	FR2	5	R1030J
183.589	1.192	1156013	REC_START	n/a	n/a	n/a	-999	1	[0, 0, 0]	n/a	0	1	0	n/a	n/a	0.0	0	0	0	FR2	5	R1030J
184.781	0.905	1157205	REC_WORD	1.192	n/a	RHINO	-999	1	[0, 0, 0]	n/a	0	1	0	n/a	n/a	0.0	0	0	0	FR2	5	R1030J
185.686	1.033	1158110	REC_WORD	2.097	n/a	WHALE	-999	1	[0, 0, 0]	n/a	0	1	0	n/a	n/a	0.0	0	0	0	FR2	5	R1030J
186.719	3.81	1159143	REC_WORD	3.13	n/a	DOG	-999	1	[0, 0, 0]	n/a	0	1	0	n/a	n/a	0.0	0	0	0	FR2	5	R1030J
190.529	1.785	1162953	REC_WORD	6.94	n/a	ATTIC	-999	1	[0, 0, 0]	n/a	0	1	0	n/a	n/a	0.0	0	0	0	FR2	5	R1030J
192.314	6.166	1164738	REC_WORD	8.725	n/a	TREE	-999	1	[0, 0, 0]	n/a	0	1	0	n/a	n/a	0.0	0	0	0	FR2	5	R1030J
198.48	6.362	1170904	REC_WORD_VV	14.891	n/a	<>	-999	1	[0, 0, 0]	n/a	0	1	0	n/a	n/a	0.0	0	0	0	FR2	5	R1030J
204.842	8.524	1177266	REC_WORD_VV	21.253	n/a	<>	-999	1	[0, 0, 0]	n/a	0	1	0	n/a	n/a	0.0	0	0	0	FR2	5	R1030J
213.366	2.092	1185790	REC_END	n/a	n/a	n/a	-999	1	[0, 0, 0]	n/a	0	1	0	n/a	n/a	0.0	0	0	0	FR2	5	R1030J
215.458	10.0	1187882	COUNTDOWN_START	n/a	n/a	n/a	-999	2	[0, 0, 0]	n/a	0	1	0	n/a	n/a	0.0	0	0	0	FR2	5	R1030J
215.459	10.427	1187883	TRIAL	n/a	n/a	n/a	-999	2	[0, 0, 0]	n/a	0	1	0	n/a	n/a	0.0	0	0	0	FR2	5	R1030J
225.886	0.006	1198310	COUNTDOWN_END	n/a	n/a	n/a	-999	2	[0, 0, 0]	n/a	0	1	0	n/a	n/a	0.0	0	0	0	FR2	5	R1030J
225.892	1.6	1198316	ORIENT	n/a	n/a	n/a	-999	2	[0, 0, 0]	n/a	0	1	0	n/a	n/a	0.0	0	0	0	FR2	5	R1030J
228.286	4.6	1200710	STIM_ON	n/a	n/a	n/a	-999	2	[0, 0, 0]	n/a	1	1	4600	LQ2	LQ3	500.0	50	230	300	FR2	5	R1030J
228.497	1.6	1200921	WORD	n/a	wordpools/wordpool_EN.txt	FORT	1	2	[0, 0, 0]	n/a	1	1	4600	LQ2	LQ3	500.0	50	230	300	FR2	5	R1030J
230.918	1.6	1203342	WORD	n/a	wordpools/wordpool_EN.txt	HOOK	2	2	[0, 0, 0]	n/a	1	1	4600	LQ2	LQ3	500.0	50	230	300	FR2	5	R1030J
233.388	1.6	1205811	WORD	n/a	wordpools/wordpool_EN.txt	LAKE	3	2	[0, 0, 0]	n/a	0	1	0	n/a	n/a	0.0	0	0	0	FR2	5	R1030J
235.775	1.6	1208198	WORD	n/a	wordpools/wordpool_EN.txt	RIB	4	2	[0, 0, 0]	n/a	0	1	0	n/a	n/a	0.0	0	0	0	FR2	5	R1030J
238.018	4.6	1210441	STIM_ON	n/a	n/a	n/a	-999	2	[0, 0, 0]	n/a	1	1	4600	LQ2	LQ3	500.0	50	230	300	FR2	5	R1030J
238.23	1.6	1210653	WORD	n/a	wordpools/wordpool_EN.txt	TOAD	5	2	[0, 0, 0]	n/a	1	1	4600	LQ2	LQ3	500.0	50	230	300	FR2	5	R1030J
240.766	1.6	1213189	WORD	n/a	wordpools/wordpool_EN.txt	CROW	6	2	[0, 0, 0]	n/a	1	1	4600	LQ2	LQ3	500.0	50	230	300	FR2	5	R1030J
243.222	1.6	1215645	WORD	n/a	wordpools/wordpool_EN.txt	JUDGE	7	2	[0, 0, 0]	n/a	0	1	0	n/a	n/a	0.0	0	0	0	FR2	5	R1030J
245.809	1.6	1218232	WORD	n/a	wordpools/wordpool_EN.txt	BRICK	8	2	[0, 0, 0]	n/a	0	1	0	n/a	n/a	0.0	0	0	0	FR2	5	R1030J
248.123	4.6	1220546	STIM_ON	n/a	n/a	n/a	-999	2	[0, 0, 0]	n/a	1	1	4600	LQ2	LQ3	500.0	50	230	300	FR2	5	R1030J
248.331	1.6	1220754	WORD	n/a	wordpools/wordpool_EN.txt	DESK	9	2	[0, 0, 0]	n/a	1	1	4600	LQ2	LQ3	500.0	50	230	300	FR2	5	R1030J
250.717	1.6	1223140	WORD	n/a	wordpools/wordpool_EN.txt	SUN	10	2	[0, 0, 0]	n/a	1	1	4600	LQ2	LQ3	500.0	50	230	300	FR2	5	R1030J
253.172	1.6	1225595	WORD	n/a	wordpools/wordpool_EN.txt	PARK	11	2	[0, 0, 0]	n/a	0	1	0	n/a	n/a	0.0	0	0	0	FR2	5	R1030J
255.758	1.6	1228181	WORD	n/a	wordpools/wordpool_EN.txt	TENT	12	2	[0, 0, 0]	n/a	0	1	0	n/a	n/a	0.0	0	0	0	FR2	5	R1030J
257.362	0.002	1229785	DISTRACT_START	n/a	n/a	n/a	-999	2	[0, 0, 0]	n/a	0	1	0	n/a	n/a	0.0	0	0	0	FR2	5	R1030J
257.364	0.016	1229787	START	n/a	n/a	n/a	-999	2	[-999, -999, -999]	n/a	0	1	0	n/a	n/a	0.0	0	0	0	FR2	5	R1030J
257.38	3.054	1229803	PROB	3.029	n/a	n/a	-999	2	[8, 1, 6]	15	0	1	0	n/a	n/a	0.0	0	0	0	FR2	5	R1030J
260.434	2.119	1232857	PROB	2.093	n/a	n/a	-999	2	[9, 8, 1]	18	0	1	0	n/a	n/a	0.0	0	0	0	FR2	5	R1030J
262.553	2.489	1234976	PROB	2.456	n/a	n/a	-999	2	[4, 8, 4]	16	0	1	0	n/a	n/a	0.0	0	0	0	FR2	5	R1030J
265.042	2.17	1237465	PROB	2.142	n/a	n/a	-999	2	[2, 6, 4]	12	0	1	0	n/a	n/a	0.0	0	0	0	FR2	5	R1030J
267.212	3.005	1239635	PROB	2.98	n/a	n/a	-999	2	[7, 2, 7]	16	0	1	0	n/a	n/a	0.0	0	0	0	FR2	5	R1030J
270.217	3.239	1242640	PROB	3.215	n/a	n/a	-999	2	[4, 8, 5]	17	0	1	0	n/a	n/a	0.0	0	0	0	FR2	5	R1030J
273.456	2.971	1245879	PROB	2.945	n/a	n/a	-999	2	[1, 7, 5]	13	0	1	0	n/a	n/a	0.0	0	0	0	FR2	5	R1030J
276.427	2.348	1248850	PROB	2.348	n/a	n/a	-999	2	[5, 4, 8]	17	0	1	0	n/a	n/a	0.0	0	0	0	FR2	5	R1030J
278.775	0.023	1251198	STOP	n/a	n/a	n/a	-999	2	[-999, -999, -999]	n/a	0	1	0	n/a	n/a	0.0	0	0	0	FR2	5	R1030J
278.798	1.219	1251221	DISTRACT_END	n/a	n/a	n/a	-999	2	[0, 0, 0]	n/a	0	1	0	n/a	n/a	0.0	0	0	0	FR2	5	R1030J
280.017	2.17	1252440	REC_START	n/a	n/a	n/a	-999	2	[0, 0, 0]	n/a	0	1	0	n/a	n/a	0.0	0	0	0	FR2	5	R1030J
282.187	9.889	1254610	REC_WORD	2.17	n/a	SUN	-999	2	[0, 0, 0]	n/a	0	1	0	n/a	n/a	0.0	0	0	0	FR2	5	R1030J
292.076	4.094	1264499	REC_WORD	12.059	n/a	ATTIC	-999	2	[0, 0, 0]	n/a	0	1	0	n/a	n/a	0.0	0	0	0	FR2	5	R1030J
296.17	13.861	1268593	REC_WORD	16.153	n/a	RHINO	-999	2	[0, 0, 0]	n/a	0	1	0	n/a	n/a	0.0	0	0	0	FR2	5	R1030J
310.031	2.34	1282454	REC_END	n/a	n/a	n/a	-999	2	[0, 0, 0]	n/a	0	1	0	n/a	n/a	0.0	0	0	0	FR2	5	R1030J
312.371	10.0	1284794	COUNTDOWN_START	n/a	n/a	n/a	-999	3	[0, 0, 0]	n/a	0	0	0	n/a	n/a	0.0	0	0	0	FR2	5	R1030J
312.372	10.427	1284795	TRIAL	n/a	n/a	n/a	-999	3	[0, 0, 0]	n/a	0	0	0	n/a	n/a	0.0	0	0	0	FR2	5	R1030J
322.799	0.007	1295222	COUNTDOWN_END	n/a	n/a	n/a	-999	3	[0, 0, 0]	n/a	0	0	0	n/a	n/a	0.0	0	0	0	FR2	5	R1030J
322.806	1.6	1295229	ORIENT	n/a	n/a	n/a	-999	3	[0, 0, 0]	n/a	0	0	0	n/a	n/a	0.0	0	0	0	FR2	5	R1030J
325.343	1.6	1297766	WORD	n/a	wordpools/wordpool_EN.txt	BOY	1	3	[0, 0, 0]	n/a	0	0	0	n/a	n/a	0.0	0	0	0	FR2	5	R1030J
327.981	1.6	1300404	WORD	n/a	wordpools/wordpool_EN.txt	DRESS	2	3	[0, 0, 0]	n/a	0	0	0	n/a	n/a	0.0	0	0	0	FR2	5	R1030J
330.435	1.6	1302858	WORD	n/a	wordpools/wordpool_EN.txt	BENCH	3	3	[0, 0, 0]	n/a	0	0	0	n/a	n/a	0.0	0	0	0	FR2	5	R1030J
332.856	1.6	1305279	WORD	n/a	wordpools/wordpool_EN.txt	WING	4	3	[0, 0, 0]	n/a	0	0	0	n/a	n/a	0.0	0	0	0	FR2	5	R1030J
335.377	1.6	1307800	WORD	n/a	wordpools/wordpool_EN.txt	SHELL	5	3	[0, 0, 0]	n/a	0	0	0	n/a	n/a	0.0	0	0	0	FR2	5	R1030J
338.015	1.6	1310437	WORD	n/a	wordpools/wordpool_EN.txt	ICE	6	3	[0, 0, 0]	n/a	0	0	0	n/a	n/a	0.0	0	0	0	FR2	5	R1030J
340.534	1.6	1312956	WORD	n/a	wordpools/wordpool_EN.txt	PEARL	7	3	[0, 0, 0]	n/a	0	0	0	n/a	n/a	0.0	0	0	0	FR2	5	R1030J
343.023	1.6	1315445	WORD	n/a	wordpools/wordpool_EN.txt	CLOCK	8	3	[0, 0, 0]	n/a	0	0	0	n/a	n/a	0.0	0	0	0	FR2	5	R1030J
345.46	1.6	1317882	WORD	n/a	wordpools/wordpool_EN.txt	HAWK	9	3	[0, 0, 0]	n/a	0	0	0	n/a	n/a	0.0	0	0	0	FR2	5	R1030J
348.098	1.6	1320520	WORD	n/a	wordpools/wordpool_EN.txt	CRANE	10	3	[0, 0, 0]	n/a	0	0	0	n/a	n/a	0.0	0	0	0	FR2	5	R1030J
350.518	1.6	1322940	WORD	n/a	wordpools/wordpool_EN.txt	ELF	11	3	[0, 0, 0]	n/a	0	0	0	n/a	n/a	0.0	0	0	0	FR2	5	R1030J
352.923	1.6	1325345	WORD	n/a	wordpools/wordpool_EN.txt	SHOE	12	3	[0, 0, 0]	n/a	0	0	0	n/a	n/a	0.0	0	0	0	FR2	5	R1030J
354.541	0.001	1326963	DISTRACT_START	n/a	n/a	n/a	-999	3	[0, 0, 0]	n/a	0	0	0	n/a	n/a	0.0	0	0	0	FR2	5	R1030J
354.542	0.016	1326964	START	n/a	n/a	n/a	-999	3	[-999, -999, -999]	n/a	0	0	0	n/a	n/a	0.0	0	0	0	FR2	5	R1030J
354.558	2.672	1326980	PROB	2.646	n/a	n/a	-999	3	[9, 1, 3]	13	0	0	0	n/a	n/a	0.0	0	0	0	FR2	5	R1030J
357.23	2.237	1329652	PROB	2.213	n/a	n/a	-999	3	[7, 2, 7]	16	0	0	0	n/a	n/a	0.0	0	0	0	FR2	5	R1030J
359.467	2.588	1331889	PROB	2.553	n/a	n/a	-999	3	[3, 9, 3]	15	0	0	0	n/a	n/a	0.0	0	0	0	FR2	5	R1030J
362.055	2.637	1334477	PROB	2.612	n/a	n/a	-999	3	[7, 3, 5]	15	0	0	0	n/a	n/a	0.0	0	0	0	FR2	5	R1030J
364.692	2.938	1337114	PROB	2.911	n/a	n/a	-999	3	[6, 3, 5]	14	0	0	0	n/a	n/a	0.0	0	0	0	FR2	5	R1030J
367.63	2.756	1340052	PROB	2.718	n/a	n/a	-999	3	[3, 4, 2]	9	0	0	0	n/a	n/a	0.0	0	0	0	FR2	5	R1030J
370.386	2.654	1342808	PROB	2.634	n/a	n/a	-999	3	[8, 5, 6]	19	0	0	0	n/a	n/a	0.0	0	0	0	FR2	5	R1030J
373.04	6.185	1345462	PROB	6.185	n/a	n/a	-999	3	[6, 7, 9]	22	0	0	0	n/a	n/a	0.0	0	0	0	FR2	5	R1030J
379.225	0.009	1351647	STOP	n/a	n/a	n/a	-999	3	[-999, -999, -999]	n/a	0	0	0	n/a	n/a	0.0	0	0	0	FR2	5	R1030J
379.234	1.119	1351656	DISTRACT_END	n/a	n/a	n/a	-999	3	[0, 0, 0]	n/a	0	0	0	n/a	n/a	0.0	0	0	0	FR2	5	R1030J
380.353	2.798	1352775	REC_START	n/a	n/a	n/a	-999	3	[0, 0, 0]	n/a	0	0	0	n/a	n/a	0.0	0	0	0	FR2	5	R1030J
383.151	0.779	1355573	REC_WORD	2.798	n/a	ICE	-999	3	[0, 0, 0]	n/a	0	0	0	n/a	n/a	0.0	0	0	0	FR2	5	R1030J
383.93	3.199	1356352	REC_WORD	3.577	n/a	SHELL	-999	3	[0, 0, 0]	n/a	0	0	0	n/a	n/a	0.0	0	0	0	FR2	5	R1030J
387.129	0.696	1359551	REC_WORD	6.776	n/a	HAWK	-999	3	[0, 0, 0]	n/a	0	0	0	n/a	n/a	0.0	0	0	0	FR2	5	R1030J
387.825	5.683	1360247	REC_WORD	7.472	n/a	CRANE	-999	3	[0, 0, 0]	n/a	0	0	0	n/a	n/a	0.0	0	0	0	FR2	5	R1030J
393.508	16.858	1365930	REC_WORD	13.155	n/a	ELF	-999	3	[0, 0, 0]	n/a	0	0	0	n/a	n/a	0.0	0	0	0	FR2	5	R1030J
410.366	1.823	1382788	REC_END	n/a	n/a	n/a	-999	3	[0, 0, 0]	n/a	0	0	0	n/a	n/a	0.0	0	0	0	FR2	5	R1030J
412.189	10.0	1384611	COUNTDOWN_START	n/a	n/a	n/a	-999	4	[0, 0, 0]	n/a	0	1	0	n/a	n/a	0.0	0	0	0	FR2	5	R1030J
412.19	10.427	1384612	TRIAL	n/a	n/a	n/a	-999	4	[0, 0, 0]	n/a	0	1	0	n/a	n/a	0.0	0	0	0	FR2	5	R1030J
422.617	0.006	1395039	COUNTDOWN_END	n/a	n/a	n/a	-999	4	[0, 0, 0]	n/a	0	1	0	n/a	n/a	0.0	0	0	0	FR2	5	R1030J
422.623	1.6	1395045	ORIENT	n/a	n/a	n/a	-999	4	[0, 0, 0]	n/a	0	1	0	n/a	n/a	0.0	0	0	0	FR2	5	R1030J
425.245	1.6	1397667	WORD	n/a	wordpools/wordpool_EN.txt	BARN	1	4	[0, 0, 0]	n/a	0	1	0	n/a	n/a	0.0	0	0	0	FR2	5	R1030J
427.748	1.6	1400170	WORD	n/a	wordpools/wordpool_EN.txt	PEAR	2	4	[0, 0, 0]	n/a	0	1	0	n/a	n/a	0.0	0	0	0	FR2	5	R1030J
430.105	4.6	1402527	STIM_ON	n/a	n/a	n/a	-999	4	[0, 0, 0]	n/a	1	1	4600	LQ2	LQ3	500.0	50	230	300	FR2	5	R1030J
430.32	1.6	1402742	WORD	n/a	wordpools/wordpool_EN.txt	JUICE	3	4	[0, 0, 0]	n/a	1	1	4600	LQ2	LQ3	500.0	50	230	300	FR2	5	R1030J
432.857	1.6	1405279	WORD	n/a	wordpools/wordpool_EN.txt	CUBE	4	4	[0, 0, 0]	n/a	1	1	4600	LQ2	LQ3	500.0	50	230	300	FR2	5	R1030J
435.345	1.6	1407767	WORD	n/a	wordpools/wordpool_EN.txt	CART	5	4	[0, 0, 0]	n/a	0	1	0	n/a	n/a	0.0	0	0	0	FR2	5	R1030J
437.748	1.6	1410170	WORD	n/a	wordpools/wordpool_EN.txt	SOCK	6	4	[0, 0, 0]	n/a	0	1	0	n/a	n/a	0.0	0	0	0	FR2	5	R1030J
439.936	4.6	1412358	STIM_ON	n/a	n/a	n/a	-999	4	[0, 0, 0]	n/a	1	1	4600	LQ2	LQ3	500.0	50	230	300	FR2	5	R1030J
440.153	1.6	1412575	WORD	n/a	wordpools/wordpool_EN.txt	DITCH	7	4	[0, 0, 0]	n/a	1	1	4600	LQ2	LQ3	500.0	50	230	300	FR2	5	R1030J
442.573	1.6	1414995	WORD	n/a	wordpools/wordpool_EN.txt	EGG	8	4	[0, 0, 0]	n/a	1	1	4600	LQ2	LQ3	500.0	50	230	300	FR2	5	R1030J
444.996	1.6	1417417	WORD	n/a	wordpools/wordpool_EN.txt	MAZE	9	4	[0, 0, 0]	n/a	0	1	0	n/a	n/a	0.0	0	0	0	FR2	5	R1030J
447.449	1.6	1419870	WORD	n/a	wordpools/wordpool_EN.txt	SPONGE	10	4	[0, 0, 0]	n/a	0	1	0	n/a	n/a	0.0	0	0	0	FR2	5	R1030J
449.718	4.6	1422139	STIM_ON	n/a	n/a	n/a	-999	4	[0, 0, 0]	n/a	1	1	4600	LQ2	LQ3	500.0	50	230	300	FR2	5	R1030J
449.936	1.6	1422357	WORD	n/a	wordpools/wordpool_EN.txt	MOLE	11	4	[0, 0, 0]	n/a	1	1	4600	LQ2	LQ3	500.0	50	230	300	FR2	5	R1030J
452.506	1.6	1424927	WORD	n/a	wordpools/wordpool_EN.txt	LIP	12	4	[0, 0, 0]	n/a	1	1	4600	LQ2	LQ3	500.0	50	230	300	FR2	5	R1030J
454.11	0.001	1426531	DISTRACT_START	n/a	n/a	n/a	-999	4	[0, 0, 0]	n/a	1	1	4600	LQ2	LQ3	500.0	50	230	300	FR2	5	R1030J
454.111	0.015	1426532	START	n/a	n/a	n/a	-999	4	[-999, -999, -999]	n/a	0	1	0	n/a	n/a	0.0	0	0	0	FR2	5	R1030J
454.126	2.739	1426547	PROB	2.699	n/a	n/a	-999	4	[6, 6, 3]	15	0	1	0	n/a	n/a	0.0	0	0	0	FR2	5	R1030J
456.865	2.036	1429286	PROB	2.009	n/a	n/a	-999	4	[1, 3, 4]	8	0	1	0	n/a	n/a	0.0	0	0	0	FR2	5	R1030J
458.901	2.837	1431322	PROB	2.803	n/a	n/a	-999	4	[4, 2, 9]	15	0	1	0	n/a	n/a	0.0	0	0	0	FR2	5	R1030J
461.738	1.97	1434159	PROB	1.942	n/a	n/a	-999	4	[7, 3, 2]	12	0	1	0	n/a	n/a	0.0	0	0	0	FR2	5	R1030J
463.708	2.572	1436129	PROB	2.541	n/a	n/a	-999	4	[5, 9, 8]	22	0	1	0	n/a	n/a	0.0	0	0	0	FR2	5	R1030J
466.28	2.888	1438701	PROB	2.865	n/a	n/a	-999	4	[7, 2, 8]	17	0	1	0	n/a	n/a	0.0	0	0	0	FR2	5	R1030J
469.168	2.154	1441589	PROB	2.129	n/a	n/a	-999	4	[2, 2, 7]	11	0	1	0	n/a	n/a	0.0	0	0	0	FR2	5	R1030J
471.322	2.521	1443743	PROB	2.488	n/a	n/a	-999	4	[3, 6, 6]	15	0	1	0	n/a	n/a	0.0	0	0	0	FR2	5	R1030J
473.843	3.07	1446264	PROB	3.07	n/a	n/a	-999	4	[6, 9, 1]	16	0	1	0	n/a	n/a	0.0	0	0	0	FR2	5	R1030J
476.913	0.019	1449334	STOP	n/a	n/a	n/a	-999	4	[-999, -999, -999]	n/a	0	1	0	n/a	n/a	0.0	0	0	0	FR2	5	R1030J
476.932	1.069	1449353	DISTRACT_END	n/a	n/a	n/a	-999	4	[0, 0, 0]	n/a	0	1	0	n/a	n/a	0.0	0	0	0	FR2	5	R1030J
478.001	5.541	1450422	REC_START	n/a	n/a	n/a	-999	4	[0, 0, 0]	n/a	0	1	0	n/a	n/a	0.0	0	0	0	FR2	5	R1030J
483.542	3.273	1455963	REC_WORD	5.541	n/a	LIP	-999	4	[0, 0, 0]	n/a	0	1	0	n/a	n/a	0.0	0	0	0	FR2	5	R1030J
486.815	5.421	1459236	REC_WORD	8.814	n/a	MAZE	-999	4	[0, 0, 0]	n/a	0	1	0	n/a	n/a	0.0	0	0	0	FR2	5	R1030J
492.236	0.821	1464657	REC_WORD	14.235	n/a	DITCH	-999	4	[0, 0, 0]	n/a	0	1	0	n/a	n/a	0.0	0	0	0	FR2	5	R1030J
493.057	14.961	1465478	REC_WORD	15.056	n/a	EGG	-999	4	[0, 0, 0]	n/a	0	1	0	n/a	n/a	0.0	0	0	0	FR2	5	R1030J
508.018	1.869	1480439	REC_END	n/a	n/a	n/a	-999	4	[0, 0, 0]	n/a	0	1	0	n/a	n/a	0.0	0	0	0	FR2	5	R1030J
509.887	0.0	1482308	TRIAL	n/a	n/a	n/a	-999	5	[0, 0, 0]	n/a	0	1	0	n/a	n/a	0.0	0	0	0	FR2	5	R1030J
509.887	10.0	1482308	COUNTDOWN_START	n/a	n/a	n/a	-999	5	[0, 0, 0]	n/a	0	1	0	n/a	n/a	0.0	0	0	0	FR2	5	R1030J
520.315	0.006	1492736	COUNTDOWN_END	n/a	n/a	n/a	-999	5	[0, 0, 0]	n/a	0	1	0	n/a	n/a	0.0	0	0	0	FR2	5	R1030J
520.321	1.6	1492742	ORIENT	n/a	n/a	n/a	-999	5	[0, 0, 0]	n/a	0	1	0	n/a	n/a	0.0	0	0	0	FR2	5	R1030J
522.724	1.6	1495145	WORD	n/a	wordpools/wordpool_EN.txt	TANK	1	5	[0, 0, 0]	n/a	0	1	0	n/a	n/a	0.0	0	0	0	FR2	5	R1030J
525.096	1.6	1497517	WORD	n/a	wordpools/wordpool_EN.txt	PRINCE	2	5	[0, 0, 0]	n/a	0	1	0	n/a	n/a	0.0	0	0	0	FR2	5	R1030J
527.274	4.6	1499695	STIM_ON	n/a	n/a	n/a	-999	5	[0, 0, 0]	n/a	1	1	4600	LQ2	LQ3	500.0	50	230	300	FR2	5	R1030J
527.483	1.6	1499904	WORD	n/a	wordpools/wordpool_EN.txt	CLOUD	3	5	[0, 0, 0]	n/a	1	1	4600	LQ2	LQ3	500.0	50	230	300	FR2	5	R1030J
530.004	1.6	1502425	WORD	n/a	wordpools/wordpool_EN.txt	LEG	4	5	[0, 0, 0]	n/a	1	1	4600	LQ2	LQ3	500.0	50	230	300	FR2	5	R1030J
532.492	1.6	1504913	WORD	n/a	wordpools/wordpool_EN.txt	NAIL	5	5	[0, 0, 0]	n/a	0	1	0	n/a	n/a	0.0	0	0	0	FR2	5	R1030J
534.896	1.6	1507317	WORD	n/a	wordpools/wordpool_EN.txt	CLOTH	6	5	[0, 0, 0]	n/a	0	1	0	n/a	n/a	0.0	0	0	0	FR2	5	R1030J
537.29	4.6	1509711	STIM_ON	n/a	n/a	n/a	-999	5	[0, 0, 0]	n/a	1	1	4600	LQ2	LQ3	500.0	50	230	300	FR2	5	R1030J
537.499	1.6	1509920	WORD	n/a	wordpools/wordpool_EN.txt	TAIL	7	5	[0, 0, 0]	n/a	1	1	4600	LQ2	LQ3	500.0	50	230	300	FR2	5	R1030J
540.004	1.6	1512425	WORD	n/a	wordpools/wordpool_EN.txt	SWAMP	8	5	[0, 0, 0]	n/a	1	1	4600	LQ2	LQ3	500.0	50	230	300	FR2	5	R1030J
542.476	1.6	1514897	WORD	n/a	wordpools/wordpool_EN.txt	BRANCH	9	5	[0, 0, 0]	n/a	0	1	0	n/a	n/a	0.0	0	0	0	FR2	5	R1030J
544.946	1.6	1517367	WORD	n/a	wordpools/wordpool_EN.txt	CUP	10	5	[0, 0, 0]	n/a	0	1	0	n/a	n/a	0.0	0	0	0	FR2	5	R1030J
547.359	4.6	1519780	STIM_ON	n/a	n/a	n/a	-999	5	[0, 0, 0]	n/a	1	1	4600	LQ2	LQ3	500.0	50	230	300	FR2	5	R1030J
547.566	1.6	1519987	WORD	n/a	wordpools/wordpool_EN.txt	FUDGE	11	5	[0, 0, 0]	n/a	1	1	4600	LQ2	LQ3	500.0	50	230	300	FR2	5	R1030J
549.954	1.6	1522374	WORD	n/a	wordpools/wordpool_EN.txt	SLEEVE	12	5	[0, 0, 0]	n/a	1	1	4600	LQ2	LQ3	500.0	50	230	300	FR2	5	R1030J
551.573	0.001	1523993	DISTRACT_START	n/a	n/a	n/a	-999	5	[0, 0, 0]	n/a	1	1	4600	LQ2	LQ3	500.0	50	230	300	FR2	5	R1030J
551.574	0.016	1523994	START	n/a	n/a	n/a	-999	5	[-999, -999, -999]	n/a	0	1	0	n/a	n/a	0.0	0	0	0	FR2	5	R1030J
551.59	3.138	1524010	PROB	3.107	n/a	n/a	-999	5	[3, 3, 9]	15	0	1	0	n/a	n/a	0.0	0	0	0	FR2	5	R1030J
554.728	2.989	1527148	PROB	2.961	n/a	n/a	-999	5	[4, 9, 5]	18	0	1	0	n/a	n/a	0.0	0	0	0	FR2	5	R1030J
557.717	2.338	1530137	PROB	2.309	n/a	n/a	-999	5	[3, 6, 2]	11	0	1	0	n/a	n/a	0.0	0	0	0	FR2	5	R1030J
560.055	2.703	1532475	PROB	2.682	n/a	n/a	-999	5	[6, 4, 8]	18	0	1	0	n/a	n/a	0.0	0	0	0	FR2	5	R1030J
562.758	2.706	1535178	PROB	2.668	n/a	n/a	-999	5	[1, 6, 4]	11	0	1	0	n/a	n/a	0.0	0	0	0	FR2	5	R1030J
565.464	3.472	1537884	PROB	3.45	n/a	n/a	-999	5	[5, 9, 2]	16	0	1	0	n/a	n/a	0.0	0	0	0	FR2	5	R1030J
568.936	3.914	1541356	PROB	3.914	n/a	n/a	-999	5	[5, 3, 6]	14	0	1	0	n/a	n/a	0.0	0	0	0	FR2	5	R1030J
572.85	0.011	1545270	STOP	n/a	n/a	n/a	-999	5	[-999, -999, -999]	n/a	0	1	0	n/a	n/a	0.0	0	0	0	FR2	5	R1030J
572.861	1.068	1545281	DISTRACT_END	n/a	n/a	n/a	-999	5	[0, 0, 0]	n/a	0	1	0	n/a	n/a	0.0	0	0	0	FR2	5	R1030J
573.929	21.261	1546349	REC_START	n/a	n/a	n/a	-999	5	[0, 0, 0]	n/a	0	1	0	n/a	n/a	0.0	0	0	0	FR2	5	R1030J
595.19	8.752	1567610	REC_WORD	21.261	n/a	BRANCH	-999	5	[0, 0, 0]	n/a	0	1	0	n/a	n/a	0.0	0	0	0	FR2	5	R1030J
603.942	2.207	1576362	REC_END	n/a	n/a	n/a	-999	5	[0, 0, 0]	n/a	0	1	0	n/a	n/a	0.0	0	0	0	FR2	5	R1030J
606.149	0.0	1578569	TRIAL	n/a	n/a	n/a	-999	6	[0, 0, 0]	n/a	0	1	0	n/a	n/a	0.0	0	0	0	FR2	5	R1030J
606.149	10.0	1578569	COUNTDOWN_START	n/a	n/a	n/a	-999	6	[0, 0, 0]	n/a	0	1	0	n/a	n/a	0.0	0	0	0	FR2	5	R1030J
616.577	0.005	1588997	COUNTDOWN_END	n/a	n/a	n/a	-999	6	[0, 0, 0]	n/a	0	1	0	n/a	n/a	0.0	0	0	0	FR2	5	R1030J
616.582	1.6	1589002	ORIENT	n/a	n/a	n/a	-999	6	[0, 0, 0]	n/a	0	1	0	n/a	n/a	0.0	0	0	0	FR2	5	R1030J
619.137	1.6	1591557	WORD	n/a	wordpools/wordpool_EN.txt	NET	1	6	[0, 0, 0]	n/a	0	1	0	n/a	n/a	0.0	0	0	0	FR2	5	R1030J
621.624	1.6	1594044	WORD	n/a	wordpools/wordpool_EN.txt	PET	2	6	[0, 0, 0]	n/a	0	1	0	n/a	n/a	0.0	0	0	0	FR2	5	R1030J
623.903	4.6	1596323	STIM_ON	n/a	n/a	n/a	-999	6	[0, 0, 0]	n/a	1	1	4600	LQ2	LQ3	500.0	50	230	300	FR2	5	R1030J
624.113	1.6	1596533	WORD	n/a	wordpools/wordpool_EN.txt	MOUTH	3	6	[0, 0, 0]	n/a	1	1	4600	LQ2	LQ3	500.0	50	230	300	FR2	5	R1030J
626.749	1.6	1599169	WORD	n/a	wordpools/wordpool_EN.txt	SINK	4	6	[0, 0, 0]	n/a	1	1	4600	LQ2	LQ3	500.0	50	230	300	FR2	5	R1030J
629.288	1.6	1601708	WORD	n/a	wordpools/wordpool_EN.txt	LAMP	5	6	[0, 0, 0]	n/a	0	1	0	n/a	n/a	0.0	0	0	0	FR2	5	R1030J
631.842	1.6	1604262	WORD	n/a	wordpools/wordpool_EN.txt	BIRD	6	6	[0, 0, 0]	n/a	0	1	0	n/a	n/a	0.0	0	0	0	FR2	5	R1030J
634.178	4.6	1606598	STIM_ON	n/a	n/a	n/a	-999	6	[0, 0, 0]	n/a	1	1	4600	LQ2	LQ3	500.0	50	230	300	FR2	5	R1030J
634.396	1.6	1606816	WORD	n/a	wordpools/wordpool_EN.txt	LAND	7	6	[0, 0, 0]	n/a	1	1	4600	LQ2	LQ3	500.0	50	230	300	FR2	5	R1030J
636.968	1.6	1609388	WORD	n/a	wordpools/wordpool_EN.txt	GATE	8	6	[0, 0, 0]	n/a	1	1	4600	LQ2	LQ3	500.0	50	230	300	FR2	5	R1030J
639.422	1.6	1611842	WORD	n/a	wordpools/wordpool_EN.txt	BEACH	9	6	[0, 0, 0]	n/a	0	1	0	n/a	n/a	0.0	0	0	0	FR2	5	R1030J
641.943	1.6	1614363	WORD	n/a	wordpools/wordpool_EN.txt	PALM	10	6	[0, 0, 0]	n/a	0	1	0	n/a	n/a	0.0	0	0	0	FR2	5	R1030J
644.344	4.6	1616764	STIM_ON	n/a	n/a	n/a	-999	6	[0, 0, 0]	n/a	1	1	4600	LQ2	LQ3	500.0	50	230	300	FR2	5	R1030J
644.563	1.6	1616983	WORD	n/a	wordpools/wordpool_EN.txt	SPOON	11	6	[0, 0, 0]	n/a	1	1	4600	LQ2	LQ3	500.0	50	230	300	FR2	5	R1030J
647.118	1.6	1619538	WORD	n/a	wordpools/wordpool_EN.txt	WORLD	12	6	[0, 0, 0]	n/a	1	1	4600	LQ2	LQ3	500.0	50	230	300	FR2	5	R1030J
648.736	0.001	1621156	DISTRACT_START	n/a	n/a	n/a	-999	6	[0, 0, 0]	n/a	1	1	4600	LQ2	LQ3	500.0	50	230	300	FR2	5	R1030J
648.737	0.016	1621157	START	n/a	n/a	n/a	-999	6	[-999, -999, -999]	n/a	0	1	0	n/a	n/a	0.0	0	0	0	FR2	5	R1030J
648.753	2.755	1621173	PROB	2.726	n/a	n/a	-999	6	[6, 4, 1]	11	0	1	0	n/a	n/a	0.0	0	0	0	FR2	5	R1030J
651.508	2.789	1623928	PROB	2.763	n/a	n/a	-999	6	[4, 8, 7]	19	0	1	0	n/a	n/a	0.0	0	0	0	FR2	5	R1030J
654.297	1.936	1626716	PROB	1.902	n/a	n/a	-999	6	[1, 5, 3]	9	0	1	0	n/a	n/a	0.0	0	0	0	FR2	5	R1030J
656.233	3.005	1628652	PROB	2.966	n/a	n/a	-999	6	[4, 9, 6]	19	0	1	0	n/a	n/a	0.0	0	0	0	FR2	5	R1030J
659.238	4.842	1631657	PROB	4.793	n/a	n/a	-999	6	[4, 7, 9]	20	0	1	0	n/a	n/a	0.0	0	0	0	FR2	5	R1030J
664.08	2.203	1636499	PROB	2.183	n/a	n/a	-999	6	[2, 8, 2]	12	0	1	0	n/a	n/a	0.0	0	0	0	FR2	5	R1030J
666.283	1.787	1638702	PROB	1.756	n/a	n/a	-999	6	[1, 5, 1]	7	0	1	0	n/a	n/a	0.0	0	0	0	FR2	5	R1030J
668.07	2.488	1640489	PROB	2.488	n/a	n/a	-999	6	[6, 3, 8]	17	0	1	0	n/a	n/a	0.0	0	0	0	FR2	5	R1030J
670.558	0.015	1642977	STOP	n/a	n/a	n/a	-999	6	[-999, -999, -999]	n/a	0	1	0	n/a	n/a	0.0	0	0	0	FR2	5	R1030J
670.573	1.221	1642992	DISTRACT_END	n/a	n/a	n/a	-999	6	[0, 0, 0]	n/a	0	1	0	n/a	n/a	0.0	0	0	0	FR2	5	R1030J
671.794	3.352	1644213	REC_START	n/a	n/a	n/a	-999	6	[0, 0, 0]	n/a	0	1	0	n/a	n/a	0.0	0	0	0	FR2	5	R1030J
675.146	1.99	1647565	REC_WORD_VV	3.352	n/a	<>	-999	6	[0, 0, 0]	n/a	0	1	0	n/a	n/a	0.0	0	0	0	FR2	5	R1030J
677.136	3.672	1649555	REC_WORD	5.342	n/a	CUBE	-999	6	[0, 0, 0]	n/a	0	1	0	n/a	n/a	0.0	0	0	0	FR2	5	R1030J
680.808	20.999	1653227	REC_WORD	9.014	n/a	LAWN	-999	6	[0, 0, 0]	n/a	0	1	0	n/a	n/a	0.0	0	0	0	FR2	5	R1030J
701.807	2.04	1674226	REC_END	n/a	n/a	n/a	-999	6	[0, 0, 0]	n/a	0	1	0	n/a	n/a	0.0	0	0	0	FR2	5	R1030J
703.847	0.0	1676266	TRIAL	n/a	n/a	n/a	-999	7	[0, 0, 0]	n/a	0	1	0	n/a	n/a	0.0	0	0	0	FR2	5	R1030J
703.847	10.0	1676266	COUNTDOWN_START	n/a	n/a	n/a	-999	7	[0, 0, 0]	n/a	0	1	0	n/a	n/a	0.0	0	0	0	FR2	5	R1030J
714.275	0.006	1686694	COUNTDOWN_END	n/a	n/a	n/a	-999	7	[0, 0, 0]	n/a	0	1	0	n/a	n/a	0.0	0	0	0	FR2	5	R1030J
714.281	1.6	1686700	ORIENT	n/a	n/a	n/a	-999	7	[0, 0, 0]	n/a	0	1	0	n/a	n/a	0.0	0	0	0	FR2	5	R1030J
716.496	4.6	1688915	STIM_ON	n/a	n/a	n/a	-999	7	[0, 0, 0]	n/a	1	1	4600	LQ2	LQ3	500.0	50	230	300	FR2	5	R1030J
716.701	1.6	1689120	WORD	n/a	wordpools/wordpool_EN.txt	CHALK	1	7	[0, 0, 0]	n/a	1	1	4600	LQ2	LQ3	500.0	50	230	300	FR2	5	R1030J
719.106	1.6	1691525	WORD	n/a	wordpools/wordpool_EN.txt	SHEEP	2	7	[0, 0, 0]	n/a	1	1	4600	LQ2	LQ3	500.0	50	230	300	FR2	5	R1030J
721.692	1.6	1694111	WORD	n/a	wordpools/wordpool_EN.txt	HORSE	3	7	[0, 0, 0]	n/a	0	1	0	n/a	n/a	0.0	0	0	0	FR2	5	R1030J
724.264	1.6	1696683	WORD	n/a	wordpools/wordpool_EN.txt	DIME	4	7	[0, 0, 0]	n/a	0	1	0	n/a	n/a	0.0	0	0	0	FR2	5	R1030J
726.475	4.6	1698894	STIM_ON	n/a	n/a	n/a	-999	7	[0, 0, 0]	n/a	1	1	4600	LQ2	LQ3	500.0	50	230	300	FR2	5	R1030J
726.684	1.6	1699103	WORD	n/a	wordpools/wordpool_EN.txt	HOLE	5	7	[0, 0, 0]	n/a	1	1	4600	LQ2	LQ3	500.0	50	230	300	FR2	5	R1030J
729.106	1.6	1701525	WORD	n/a	wordpools/wordpool_EN.txt	ANT	6	7	[0, 0, 0]	n/a	1	1	4600	LQ2	LQ3	500.0	50	230	300	FR2	5	R1030J
731.576	1.6	1703995	WORD	n/a	wordpools/wordpool_EN.txt	MOOSE	7	7	[0, 0, 0]	n/a	0	1	0	n/a	n/a	0.0	0	0	0	FR2	5	R1030J
734.181	1.6	1706600	WORD	n/a	wordpools/wordpool_EN.txt	PIG	8	7	[0, 0, 0]	n/a	0	1	0	n/a	n/a	0.0	0	0	0	FR2	5	R1030J
736.517	4.6	1708936	STIM_ON	n/a	n/a	n/a	-999	7	[0, 0, 0]	n/a	1	1	4600	LQ2	LQ3	500.0	50	230	300	FR2	5	R1030J
736.734	1.6	1709153	WORD	n/a	wordpools/wordpool_EN.txt	SOUP	9	7	[0, 0, 0]	n/a	1	1	4600	LQ2	LQ3	500.0	50	230	300	FR2	5	R1030J
739.273	1.6	1711692	WORD	n/a	wordpools/wordpool_EN.txt	BATH	10	7	[0, 0, 0]	n/a	1	1	4600	LQ2	LQ3	500.0	50	230	300	FR2	5	R1030J
741.743	1.6	1714162	WORD	n/a	wordpools/wordpool_EN.txt	DRUM	11	7	[0, 0, 0]	n/a	0	1	0	n/a	n/a	0.0	0	0	0	FR2	5	R1030J
744.265	1.6	1716684	WORD	n/a	wordpools/wordpool_EN.txt	SUIT	12	7	[0, 0, 0]	n/a	0	1	0	n/a	n/a	0.0	0	0	0	FR2	5	R1030J
745.884	0.001	1718303	DISTRACT_START	n/a	n/a	n/a	-999	7	[0, 0, 0]	n/a	0	1	0	n/a	n/a	0.0	0	0	0	FR2	5	R1030J
745.885	0.016	1718304	START	n/a	n/a	n/a	-999	7	[-999, -999, -999]	n/a	0	1	0	n/a	n/a	0.0	0	0	0	FR2	5	R1030J
745.901	2.971	1718320	PROB	2.934	n/a	n/a	-999	7	[9, 2, 2]	13	0	1	0	n/a	n/a	0.0	0	0	0	FR2	5	R1030J
748.872	1.97	1721291	PROB	1.938	n/a	n/a	-999	7	[4, 5, 5]	14	0	1	0	n/a	n/a	0.0	0	0	0	FR2	5	R1030J
750.842	1.869	1723261	PROB	1.839	n/a	n/a	-999	7	[1, 2, 5]	8	0	1	0	n/a	n/a	0.0	0	0	0	FR2	5	R1030J
752.711	2.155	1725130	PROB	2.131	n/a	n/a	-999	7	[2, 2, 7]	11	0	1	0	n/a	n/a	0.0	0	0	0	FR2	5	R1030J
754.866	2.087	1727285	PROB	2.057	n/a	n/a	-999	7	[1, 5, 5]	11	0	1	0	n/a	n/a	0.0	0	0	0	FR2	5	R1030J
756.953	2.187	1729372	PROB	2.161	n/a	n/a	-999	7	[8, 8, 4]	20	0	1	0	n/a	n/a	0.0	0	0	0	FR2	5	R1030J
759.14	2.087	1731559	PROB	2.062	n/a	n/a	-999	7	[1, 7, 7]	15	0	1	0	n/a	n/a	0.0	0	0	0	FR2	5	R1030J
761.227	2.469	1733645	PROB	2.439	n/a	n/a	-999	7	[4, 3, 9]	16	0	1	0	n/a	n/a	0.0	0	0	0	FR2	5	R1030J
763.696	2.515	1736114	PROB	2.515	n/a	n/a	-999	7	[3, 7, 8]	18	0	1	0	n/a	n/a	0.0	0	0	0	FR2	5	R1030J
766.211	0.007	1738629	STOP	n/a	n/a	n/a	-999	7	[-999, -999, -999]	n/a	0	1	0	n/a	n/a	0.0	0	0	0	FR2	5	R1030J
766.218	1.236	1738636	DISTRACT_END	n/a	n/a	n/a	-999	7	[0, 0, 0]	n/a	0	1	0	n/a	n/a	0.0	0	0	0	FR2	5	R1030J
767.454	5.461	1739872	REC_START	n/a	n/a	n/a	-999	7	[0, 0, 0]	n/a	0	1	0	n/a	n/a	0.0	0	0	0	FR2	5	R1030J
772.915	0.945	1745333	REC_WORD	5.461	n/a	CROW	-999	7	[0, 0, 0]	n/a	0	1	0	n/a	n/a	0.0	0	0	0	FR2	5	R1030J
773.86	1.244	1746278	REC_WORD	6.406	n/a	SUN	-999	7	[0, 0, 0]	n/a	0	1	0	n/a	n/a	0.0	0	0	0	FR2	5	R1030J
775.104	2.335	1747522	REC_WORD	7.65	n/a	GATE	-999	7	[0, 0, 0]	n/a	0	1	0	n/a	n/a	0.0	0	0	0	FR2	5	R1030J
777.439	20.036	1749857	REC_WORD	9.985	n/a	ANT	-999	7	[0, 0, 0]	n/a	0	1	0	n/a	n/a	0.0	0	0	0	FR2	5	R1030J
797.475	2.367	1769893	REC_END	n/a	n/a	n/a	-999	7	[0, 0, 0]	n/a	0	1	0	n/a	n/a	0.0	0	0	0	FR2	5	R1030J
799.842	0.0	1772260	TRIAL	n/a	n/a	n/a	-999	8	[0, 0, 0]	n/a	0	1	0	n/a	n/a	0.0	0	0	0	FR2	5	R1030J
799.842	10.0	1772260	COUNTDOWN_START	n/a	n/a	n/a	-999	8	[0, 0, 0]	n/a	0	1	0	n/a	n/a	0.0	0	0	0	FR2	5	R1030J
810.27	0.006	1782688	COUNTDOWN_END	n/a	n/a	n/a	-999	8	[0, 0, 0]	n/a	0	1	0	n/a	n/a	0.0	0	0	0	FR2	5	R1030J
810.276	1.6	1782694	ORIENT	n/a	n/a	n/a	-999	8	[0, 0, 0]	n/a	0	1	0	n/a	n/a	0.0	0	0	0	FR2	5	R1030J
812.813	1.6	1785231	WORD	n/a	wordpools/wordpool_EN.txt	PLANE	1	8	[0, 0, 0]	n/a	0	1	0	n/a	n/a	0.0	0	0	0	FR2	5	R1030J
815.318	1.6	1787736	WORD	n/a	wordpools/wordpool_EN.txt	BREAD	2	8	[0, 0, 0]	n/a	0	1	0	n/a	n/a	0.0	0	0	0	FR2	5	R1030J
817.671	4.6	1790089	STIM_ON	n/a	n/a	n/a	-999	8	[0, 0, 0]	n/a	1	1	4600	LQ2	LQ3	500.0	50	230	300	FR2	5	R1030J
817.889	1.6	1790307	WORD	n/a	wordpools/wordpool_EN.txt	SPARK	3	8	[0, 0, 0]	n/a	1	1	4600	LQ2	LQ3	500.0	50	230	300	FR2	5	R1030J
820.309	1.6	1792727	WORD	n/a	wordpools/wordpool_EN.txt	OAR	4	8	[0, 0, 0]	n/a	1	1	4600	LQ2	LQ3	500.0	50	230	300	FR2	5	R1030J
822.83	1.6	1795248	WORD	n/a	wordpools/wordpool_EN.txt	ZOO	5	8	[0, 0, 0]	n/a	0	1	0	n/a	n/a	0.0	0	0	0	FR2	5	R1030J
825.318	1.6	1797736	WORD	n/a	wordpools/wordpool_EN.txt	PIPE	6	8	[0, 0, 0]	n/a	0	1	0	n/a	n/a	0.0	0	0	0	FR2	5	R1030J
827.604	4.6	1800022	STIM_ON	n/a	n/a	n/a	-999	8	[0, 0, 0]	n/a	1	1	4600	LQ2	LQ3	500.0	50	230	300	FR2	5	R1030J
827.822	1.6	1800240	WORD	n/a	wordpools/wordpool_EN.txt	ROCK	7	8	[0, 0, 0]	n/a	1	1	4600	LQ2	LQ3	500.0	50	230	300	FR2	5	R1030J
830.343	1.6	1802761	WORD	n/a	wordpools/wordpool_EN.txt	BEAR	8	8	[0, 0, 0]	n/a	1	1	4600	LQ2	LQ3	500.0	50	230	300	FR2	5	R1030J
832.881	1.6	1805299	WORD	n/a	wordpools/wordpool_EN.txt	MAP	9	8	[0, 0, 0]	n/a	0	1	0	n/a	n/a	0.0	0	0	0	FR2	5	R1030J
835.335	1.6	1807753	WORD	n/a	wordpools/wordpool_EN.txt	GLOVE	10	8	[0, 0, 0]	n/a	0	1	0	n/a	n/a	0.0	0	0	0	FR2	5	R1030J
837.532	4.6	1809950	STIM_ON	n/a	n/a	n/a	-999	8	[0, 0, 0]	n/a	1	1	4600	LQ2	LQ3	500.0	50	230	300	FR2	5	R1030J
837.738	1.6	1810156	WORD	n/a	wordpools/wordpool_EN.txt	CROWN	11	8	[0, 0, 0]	n/a	1	1	4600	LQ2	LQ3	500.0	50	230	300	FR2	5	R1030J
840.109	1.6	1812527	WORD	n/a	wordpools/wordpool_EN.txt	SHIELD	12	8	[0, 0, 0]	n/a	1	1	4600	LQ2	LQ3	500.0	50	230	300	FR2	5	R1030J
841.728	0.001	1814146	DISTRACT_START	n/a	n/a	n/a	-999	8	[0, 0, 0]	n/a	1	1	4600	LQ2	LQ3	500.0	50	230	300	FR2	5	R1030J
841.729	0.015	1814147	START	n/a	n/a	n/a	-999	8	[-999, -999, -999]	n/a	0	1	0	n/a	n/a	0.0	0	0	0	FR2	5	R1030J
841.744	2.972	1814162	PROB	2.935	n/a	n/a	-999	8	[6, 3, 9]	18	0	1	0	n/a	n/a	0.0	0	0	0	FR2	5	R1030J
844.716	2.322	1817134	PROB	2.293	n/a	n/a	-999	8	[7, 1, 3]	11	0	1	0	n/a	n/a	0.0	0	0	0	FR2	5	R1030J
847.038	2.67	1819456	PROB	2.633	n/a	n/a	-999	8	[1, 7, 6]	14	0	1	0	n/a	n/a	0.0	0	0	0	FR2	5	R1030J
849.708	2.271	1822126	PROB	2.237	n/a	n/a	-999	8	[8, 4, 5]	17	0	1	0	n/a	n/a	0.0	0	0	0	FR2	5	R1030J
851.979	2.804	1824397	PROB	2.781	n/a	n/a	-999	8	[4, 7, 6]	17	0	1	0	n/a	n/a	0.0	0	0	0	FR2	5	R1030J
854.783	4.308	1827201	PROB	4.273	n/a	n/a	-999	8	[4, 7, 8]	19	0	1	0	n/a	n/a	0.0	0	0	0	FR2	5	R1030J
859.091	2.973	1831509	PROB	2.973	n/a	n/a	-999	8	[3, 1, 5]	9	0	1	0	n/a	n/a	0.0	0	0	0	FR2	5	R1030J
862.064	0.016	1834482	STOP	n/a	n/a	n/a	-999	8	[-999, -999, -999]	n/a	0	1	0	n/a	n/a	0.0	0	0	0	FR2	5	R1030J
862.08	1.103	1834498	DISTRACT_END	n/a	n/a	n/a	-999	8	[0, 0, 0]	n/a	0	1	0	n/a	n/a	0.0	0	0	0	FR2	5	R1030J
863.183	1.313	1835601	REC_START	n/a	n/a	n/a	-999	8	[0, 0, 0]	n/a	0	1	0	n/a	n/a	0.0	0	0	0	FR2	5	R1030J
864.496	28.699	1836914	REC_WORD	1.313	n/a	SHIELD	-999	8	[0, 0, 0]	n/a	0	1	0	n/a	n/a	0.0	0	0	0	FR2	5	R1030J
893.195	2.507	1865612	REC_END	n/a	n/a	n/a	-999	8	[0, 0, 0]	n/a	0	1	0	n/a	n/a	0.0	0	0	0	FR2	5	R1030J
895.702	0.0	1868119	TRIAL	n/a	n/a	n/a	-999	9	[0, 0, 0]	n/a	0	1	0	n/a	n/a	0.0	0	0	0	FR2	5	R1030J
895.702	10.0	1868119	COUNTDOWN_START	n/a	n/a	n/a	-999	9	[0, 0, 0]	n/a	0	1	0	n/a	n/a	0.0	0	0	0	FR2	5	R1030J
906.13	0.007	1878547	COUNTDOWN_END	n/a	n/a	n/a	-999	9	[0, 0, 0]	n/a	0	1	0	n/a	n/a	0.0	0	0	0	FR2	5	R1030J
906.137	1.6	1878554	ORIENT	n/a	n/a	n/a	-999	9	[0, 0, 0]	n/a	0	1	0	n/a	n/a	0.0	0	0	0	FR2	5	R1030J
908.344	4.6	1880761	STIM_ON	n/a	n/a	n/a	-999	9	[0, 0, 0]	n/a	1	1	4600	LQ2	LQ3	500.0	50	230	300	FR2	5	R1030J
908.557	1.6	1880974	WORD	n/a	wordpools/wordpool_EN.txt	CASH	1	9	[0, 0, 0]	n/a	1	1	4600	LQ2	LQ3	500.0	50	230	300	FR2	5	R1030J
911.079	1.6	1883496	WORD	n/a	wordpools/wordpool_EN.txt	SMOKE	2	9	[0, 0, 0]	n/a	1	1	4600	LQ2	LQ3	500.0	50	230	300	FR2	5	R1030J
913.582	1.6	1885999	WORD	n/a	wordpools/wordpool_EN.txt	CANE	3	9	[0, 0, 0]	n/a	0	1	0	n/a	n/a	0.0	0	0	0	FR2	5	R1030J
916.137	1.6	1888554	WORD	n/a	wordpools/wordpool_EN.txt	DART	4	9	[0, 0, 0]	n/a	0	1	0	n/a	n/a	0.0	0	0	0	FR2	5	R1030J
918.367	4.6	1890784	STIM_ON	n/a	n/a	n/a	-999	9	[0, 0, 0]	n/a	1	1	4600	LQ2	LQ3	500.0	50	230	300	FR2	5	R1030J
918.575	1.6	1890992	WORD	n/a	wordpools/wordpool_EN.txt	STEM	5	9	[0, 0, 0]	n/a	1	1	4600	LQ2	LQ3	500.0	50	230	300	FR2	5	R1030J
920.979	1.6	1893396	WORD	n/a	wordpools/wordpool_EN.txt	FAN	6	9	[0, 0, 0]	n/a	1	1	4600	LQ2	LQ3	500.0	50	230	300	FR2	5	R1030J
923.599	1.6	1896016	WORD	n/a	wordpools/wordpool_EN.txt	FORK	7	9	[0, 0, 0]	n/a	0	1	0	n/a	n/a	0.0	0	0	0	FR2	5	R1030J
926.187	1.6	1898604	WORD	n/a	wordpools/wordpool_EN.txt	SQUARE	8	9	[0, 0, 0]	n/a	0	1	0	n/a	n/a	0.0	0	0	0	FR2	5	R1030J
928.514	4.6	1900931	STIM_ON	n/a	n/a	n/a	-999	9	[0, 0, 0]	n/a	1	1	4600	LQ2	LQ3	500.0	50	230	300	FR2	5	R1030J
928.724	1.6	1901141	WORD	n/a	wordpools/wordpool_EN.txt	JAIL	9	9	[0, 0, 0]	n/a	1	1	4600	LQ2	LQ3	500.0	50	230	300	FR2	5	R1030J
931.129	1.6	1903546	WORD	n/a	wordpools/wordpool_EN.txt	JET	10	9	[0, 0, 0]	n/a	1	1	4600	LQ2	LQ3	500.0	50	230	300	FR2	5	R1030J
933.549	1.6	1905966	WORD	n/a	wordpools/wordpool_EN.txt	TOE	11	9	[0, 0, 0]	n/a	0	1	0	n/a	n/a	0.0	0	0	0	FR2	5	R1030J
935.988	1.6	1908405	WORD	n/a	wordpools/wordpool_EN.txt	PANTS	12	9	[0, 0, 0]	n/a	0	1	0	n/a	n/a	0.0	0	0	0	FR2	5	R1030J
937.606	0.001	1910023	DISTRACT_START	n/a	n/a	n/a	-999	9	[0, 0, 0]	n/a	0	1	0	n/a	n/a	0.0	0	0	0	FR2	5	R1030J
937.607	0.015	1910024	START	n/a	n/a	n/a	-999	9	[-999, -999, -999]	n/a	0	1	0	n/a	n/a	0.0	0	0	0	FR2	5	R1030J
937.622	2.756	1910039	PROB	2.736	n/a	n/a	-999	9	[2, 8, 1]	11	0	1	0	n/a	n/a	0.0	0	0	0	FR2	5	R1030J
940.378	2.153	1912795	PROB	2.115	n/a	n/a	-999	9	[8, 5, 5]	18	0	1	0	n/a	n/a	0.0	0	0	0	FR2	5	R1030J
942.531	2.805	1914948	PROB	2.778	n/a	n/a	-999	9	[9, 1, 5]	15	0	1	0	n/a	n/a	0.0	0	0	0	FR2	5	R1030J
945.336	3.122	1917753	PROB	3.093	n/a	n/a	-999	9	[6, 7, 3]	16	0	1	0	n/a	n/a	0.0	0	0	0	FR2	5	R1030J
948.458	2.855	1920875	PROB	2.827	n/a	n/a	-999	9	[7, 5, 7]	19	0	1	0	n/a	n/a	0.0	0	0	0	FR2	5	R1030J
951.313	3.957	1923730	PROB	3.924	n/a	n/a	-999	9	[5, 2, 3]	10	0	1	0	n/a	n/a	0.0	0	0	0	FR2	5	R1030J
955.27	1.936	1927687	PROB	1.911	n/a	n/a	-999	9	[1, 2, 6]	9	0	1	0	n/a	n/a	0.0	0	0	0	FR2	5	R1030J
957.206	3.168	1929623	PROB	3.168	n/a	n/a	-999	9	[6, 9, 9]	24	0	1	0	n/a	n/a	0.0	0	0	0	FR2	5	R1030J
960.374	0.021	1932791	STOP	n/a	n/a	n/a	-999	9	[-999, -999, -999]	n/a	0	1	0	n/a	n/a	0.0	0	0	0	FR2	5	R1030J
960.395	1.069	1932812	DISTRACT_END	n/a	n/a	n/a	-999	9	[0, 0, 0]	n/a	0	1	0	n/a	n/a	0.0	0	0	0	FR2	5	R1030J
961.464	2.003	1933881	REC_START	n/a	n/a	n/a	-999	9	[0, 0, 0]	n/a	0	1	0	n/a	n/a	0.0	0	0	0	FR2	5	R1030J
963.467	2.679	1935884	REC_WORD	2.003	n/a	STONE	-999	9	[0, 0, 0]	n/a	0	1	0	n/a	n/a	0.0	0	0	0	FR2	5	R1030J
966.146	2.558	1938563	REC_WORD	4.682	n/a	BEAN	-999	9	[0, 0, 0]	n/a	0	1	0	n/a	n/a	0.0	0	0	0	FR2	5	R1030J
968.704	22.781	1941121	REC_WORD	7.24	n/a	SKY	-999	9	[0, 0, 0]	n/a	0	1	0	n/a	n/a	0.0	0	0	0	FR2	5	R1030J
991.485	2.834	1963901	REC_END	n/a	n/a	n/a	-999	9	[0, 0, 0]	n/a	0	1	0	n/a	n/a	0.0	0	0	0	FR2	5	R1030J
994.319	0.0	1966735	TRIAL	n/a	n/a	n/a	-999	10	[0, 0, 0]	n/a	0	1	0	n/a	n/a	0.0	0	0	0	FR2	5	R1030J
994.319	10.0	1966735	COUNTDOWN_START	n/a	n/a	n/a	-999	10	[0, 0, 0]	n/a	0	1	0	n/a	n/a	0.0	0	0	0	FR2	5	R1030J
1004.747	0.005	1977163	COUNTDOWN_END	n/a	n/a	n/a	-999	10	[0, 0, 0]	n/a	0	1	0	n/a	n/a	0.0	0	0	0	FR2	5	R1030J
1004.752	1.6	1977168	ORIENT	n/a	n/a	n/a	-999	10	[0, 0, 0]	n/a	0	1	0	n/a	n/a	0.0	0	0	0	FR2	5	R1030J
1007.102	4.6	1979518	STIM_ON	n/a	n/a	n/a	-999	10	[0, 0, 0]	n/a	1	1	4600	LQ2	LQ3	500.0	50	230	300	FR2	5	R1030J
1007.307	1.6	1979723	WORD	n/a	wordpools/wordpool_EN.txt	FARM	1	10	[0, 0, 0]	n/a	1	1	4600	LQ2	LQ3	500.0	50	230	300	FR2	5	R1030J
1009.862	1.6	1982278	WORD	n/a	wordpools/wordpool_EN.txt	DOOR	2	10	[0, 0, 0]	n/a	1	1	4600	LQ2	LQ3	500.0	50	230	300	FR2	5	R1030J
1012.483	1.6	1984899	WORD	n/a	wordpools/wordpool_EN.txt	BLUSH	3	10	[0, 0, 0]	n/a	0	1	0	n/a	n/a	0.0	0	0	0	FR2	5	R1030J
1015.087	1.6	1987503	WORD	n/a	wordpools/wordpool_EN.txt	VAN	4	10	[0, 0, 0]	n/a	0	1	0	n/a	n/a	0.0	0	0	0	FR2	5	R1030J
1017.45	4.6	1989866	STIM_ON	n/a	n/a	n/a	-999	10	[0, 0, 0]	n/a	1	1	4600	LQ2	LQ3	500.0	50	230	300	FR2	5	R1030J
1017.658	1.6	1990074	WORD	n/a	wordpools/wordpool_EN.txt	FLAME	5	10	[0, 0, 0]	n/a	1	1	4600	LQ2	LQ3	500.0	50	230	300	FR2	5	R1030J
1020.263	1.6	1992679	WORD	n/a	wordpools/wordpool_EN.txt	DUCK	6	10	[0, 0, 0]	n/a	1	1	4600	LQ2	LQ3	500.0	50	230	300	FR2	5	R1030J
1022.766	1.6	1995182	WORD	n/a	wordpools/wordpool_EN.txt	SHIP	7	10	[0, 0, 0]	n/a	0	1	0	n/a	n/a	0.0	0	0	0	FR2	5	R1030J
1025.354	1.6	1997770	WORD	n/a	wordpools/wordpool_EN.txt	SKY	8	10	[0, 0, 0]	n/a	0	1	0	n/a	n/a	0.0	0	0	0	FR2	5	R1030J
1027.612	4.6	2000028	STIM_ON	n/a	n/a	n/a	-999	10	[0, 0, 0]	n/a	1	1	4600	LQ2	LQ3	500.0	50	230	300	FR2	5	R1030J
1027.825	1.6	2000241	WORD	n/a	wordpools/wordpool_EN.txt	STAR	9	10	[0, 0, 0]	n/a	1	1	4600	LQ2	LQ3	500.0	50	230	300	FR2	5	R1030J
1030.379	1.6	2002795	WORD	n/a	wordpools/wordpool_EN.txt	PLATE	10	10	[0, 0, 0]	n/a	1	1	4600	LQ2	LQ3	500.0	50	230	300	FR2	5	R1030J
1032.884	1.6	2005300	WORD	n/a	wordpools/wordpool_EN.txt	PHONE	11	10	[0, 0, 0]	n/a	0	1	0	n/a	n/a	0.0	0	0	0	FR2	5	R1030J
1035.355	1.6	2007771	WORD	n/a	wordpools/wordpool_EN.txt	FOG	12	10	[0, 0, 0]	n/a	0	1	0	n/a	n/a	0.0	0	0	0	FR2	5	R1030J
1036.974	0.001	2009390	DISTRACT_START	n/a	n/a	n/a	-999	10	[0, 0, 0]	n/a	0	1	0	n/a	n/a	0.0	0	0	0	FR2	5	R1030J
1036.975	0.016	2009391	START	n/a	n/a	n/a	-999	10	[-999, -999, -999]	n/a	0	1	0	n/a	n/a	0.0	0	0	0	FR2	5	R1030J
1036.991	3.021	2009407	PROB	2.992	n/a	n/a	-999	10	[8, 3, 9]	20	0	1	0	n/a	n/a	0.0	0	0	0	FR2	5	R1030J
1040.012	2.471	2012428	PROB	2.443	n/a	n/a	-999	10	[3, 6, 1]	10	0	1	0	n/a	n/a	0.0	0	0	0	FR2	5	R1030J
1042.483	4.256	2014899	PROB	4.219	n/a	n/a	-999	10	[2, 4, 7]	23	0	1	0	n/a	n/a	0.0	0	0	0	FR2	5	R1030J
1046.739	4.743	2019155	PROB	4.712	n/a	n/a	-999	10	[4, 1, 5]	10	0	1	0	n/a	n/a	0.0	0	0	0	FR2	5	R1030J
1051.482	2.871	2023898	PROB	2.841	n/a	n/a	-999	10	[2, 4, 5]	11	0	1	0	n/a	n/a	0.0	0	0	0	FR2	5	R1030J
1054.353	2.802	2026769	PROB	2.802	n/a	n/a	-999	10	[3, 8, 6]	17	0	1	0	n/a	n/a	0.0	0	0	0	FR2	5	R1030J
1057.155	0.02	2029571	STOP	n/a	n/a	n/a	-999	10	[-999, -999, -999]	n/a	0	1	0	n/a	n/a	0.0	0	0	0	FR2	5	R1030J
1057.175	1.185	2029591	DISTRACT_END	n/a	n/a	n/a	-999	10	[0, 0, 0]	n/a	0	1	0	n/a	n/a	0.0	0	0	0	FR2	5	R1030J
1058.36	9.844	2030776	REC_START	n/a	n/a	n/a	-999	10	[0, 0, 0]	n/a	0	1	0	n/a	n/a	0.0	0	0	0	FR2	5	R1030J
1068.204	0.865	2040620	REC_WORD	9.844	n/a	CROWN	-999	10	[0, 0, 0]	n/a	0	1	0	n/a	n/a	0.0	0	0	0	FR2	5	R1030J
1069.069	2.813	2041485	REC_WORD	10.709	n/a	SLEEVE	-999	10	[0, 0, 0]	n/a	0	1	0	n/a	n/a	0.0	0	0	0	FR2	5	R1030J
1071.882	1.439	2044298	REC_WORD	13.522	n/a	DOG	-999	10	[0, 0, 0]	n/a	0	1	0	n/a	n/a	0.0	0	0	0	FR2	5	R1030J
1073.321	15.061	2045737	REC_WORD	14.961	n/a	PIG	-999	10	[0, 0, 0]	n/a	0	1	0	n/a	n/a	0.0	0	0	0	FR2	5	R1030J
1088.382	2.065	2060797	REC_END	n/a	n/a	n/a	-999	10	[0, 0, 0]	n/a	0	1	0	n/a	n/a	0.0	0	0	0	FR2	5	R1030J
1090.447	10.0	2062862	COUNTDOWN_START	n/a	n/a	n/a	-999	11	[0, 0, 0]	n/a	0	1	0	n/a	n/a	0.0	0	0	0	FR2	5	R1030J
1090.448	10.427	2062863	TRIAL	n/a	n/a	n/a	-999	11	[0, 0, 0]	n/a	0	1	0	n/a	n/a	0.0	0	0	0	FR2	5	R1030J
1100.875	0.006	2073290	COUNTDOWN_END	n/a	n/a	n/a	-999	11	[0, 0, 0]	n/a	0	1	0	n/a	n/a	0.0	0	0	0	FR2	5	R1030J
1100.881	1.6	2073296	ORIENT	n/a	n/a	n/a	-999	11	[0, 0, 0]	n/a	0	1	0	n/a	n/a	0.0	0	0	0	FR2	5	R1030J
1103.402	1.6	2075817	WORD	n/a	wordpools/wordpool_EN.txt	OWL	1	11	[0, 0, 0]	n/a	0	1	0	n/a	n/a	0.0	0	0	0	FR2	5	R1030J
1106.023	1.6	2078438	WORD	n/a	wordpools/wordpool_EN.txt	ROOT	2	11	[0, 0, 0]	n/a	0	1	0	n/a	n/a	0.0	0	0	0	FR2	5	R1030J
1108.34	4.6	2080755	STIM_ON	n/a	n/a	n/a	-999	11	[0, 0, 0]	n/a	1	1	4600	LQ2	LQ3	500.0	50	230	300	FR2	5	R1030J
1108.56	1.6	2080975	WORD	n/a	wordpools/wordpool_EN.txt	SPEAR	3	11	[0, 0, 0]	n/a	1	1	4600	LQ2	LQ3	500.0	50	230	300	FR2	5	R1030J
1111.099	1.6	2083514	WORD	n/a	wordpools/wordpool_EN.txt	FISH	4	11	[0, 0, 0]	n/a	1	1	4600	LQ2	LQ3	500.0	50	230	300	FR2	5	R1030J
1113.719	1.6	2086134	WORD	n/a	wordpools/wordpool_EN.txt	PIN	5	11	[0, 0, 0]	n/a	0	1	0	n/a	n/a	0.0	0	0	0	FR2	5	R1030J
1116.19	1.6	2088605	WORD	n/a	wordpools/wordpool_EN.txt	COUCH	6	11	[0, 0, 0]	n/a	0	1	0	n/a	n/a	0.0	0	0	0	FR2	5	R1030J
1118.568	4.6	2090983	STIM_ON	n/a	n/a	n/a	-999	11	[0, 0, 0]	n/a	1	1	4600	LQ2	LQ3	500.0	50	230	300	FR2	5	R1030J
1118.777	1.6	2091192	WORD	n/a	wordpools/wordpool_EN.txt	YARD	7	11	[0, 0, 0]	n/a	1	1	4600	LQ2	LQ3	500.0	50	230	300	FR2	5	R1030J
1121.332	1.6	2093747	WORD	n/a	wordpools/wordpool_EN.txt	CAVE	8	11	[0, 0, 0]	n/a	1	1	4600	LQ2	LQ3	500.0	50	230	300	FR2	5	R1030J
1123.752	1.6	2096167	WORD	n/a	wordpools/wordpool_EN.txt	FLEA	9	11	[0, 0, 0]	n/a	0	1	0	n/a	n/a	0.0	0	0	0	FR2	5	R1030J
1126.241	1.6	2098656	WORD	n/a	wordpools/wordpool_EN.txt	STICK	10	11	[0, 0, 0]	n/a	0	1	0	n/a	n/a	0.0	0	0	0	FR2	5	R1030J
1128.441	4.6	2100856	STIM_ON	n/a	n/a	n/a	-999	11	[0, 0, 0]	n/a	1	1	4600	LQ2	LQ3	500.0	50	230	300	FR2	5	R1030J
1128.661	1.6	2101076	WORD	n/a	wordpools/wordpool_EN.txt	ROPE	11	11	[0, 0, 0]	n/a	1	1	4600	LQ2	LQ3	500.0	50	230	300	FR2	5	R1030J
1131.233	1.6	2103648	WORD	n/a	wordpools/wordpool_EN.txt	KITE	12	11	[0, 0, 0]	n/a	1	1	4600	LQ2	LQ3	500.0	50	230	300	FR2	5	R1030J
1132.852	0.001	2105267	DISTRACT_START	n/a	n/a	n/a	-999	11	[0, 0, 0]	n/a	1	1	4600	LQ2	LQ3	500.0	50	230	300	FR2	5	R1030J
1132.853	0.016	2105268	START	n/a	n/a	n/a	-999	11	[-999, -999, -999]	n/a	0	1	0	n/a	n/a	0.0	0	0	0	FR2	5	R1030J
1132.869	2.92	2105284	PROB	2.894	n/a	n/a	-999	11	[5, 2, 9]	16	0	1	0	n/a	n/a	0.0	0	0	0	FR2	5	R1030J
1135.789	3.073	2108204	PROB	3.039	n/a	n/a	-999	11	[3, 8, 9]	20	0	1	0	n/a	n/a	0.0	0	0	0	FR2	5	R1030J
1138.862	2.471	2111277	PROB	2.446	n/a	n/a	-999	11	[3, 4, 1]	8	0	1	0	n/a	n/a	0.0	0	0	0	FR2	5	R1030J
1141.333	3.79	2113748	PROB	3.751	n/a	n/a	-999	11	[2, 3, 8]	13	0	1	0	n/a	n/a	0.0	0	0	0	FR2	5	R1030J
1145.123	2.754	2117538	PROB	2.721	n/a	n/a	-999	11	[7, 5, 4]	16	0	1	0	n/a	n/a	0.0	0	0	0	FR2	5	R1030J
1147.877	2.605	2120292	PROB	2.582	n/a	n/a	-999	11	[3, 9, 9]	21	0	1	0	n/a	n/a	0.0	0	0	0	FR2	5	R1030J
1150.482	2.906	2122897	PROB	2.906	n/a	n/a	-999	11	[3, 1, 7]	11	0	1	0	n/a	n/a	0.0	0	0	0	FR2	5	R1030J
1153.388	0.015	2125803	STOP	n/a	n/a	n/a	-999	11	[-999, -999, -999]	n/a	0	1	0	n/a	n/a	0.0	0	0	0	FR2	5	R1030J
1153.403	1.185	2125818	DISTRACT_END	n/a	n/a	n/a	-999	11	[0, 0, 0]	n/a	0	1	0	n/a	n/a	0.0	0	0	0	FR2	5	R1030J
1154.588	6.546	2127003	REC_START	n/a	n/a	n/a	-999	11	[0, 0, 0]	n/a	0	1	0	n/a	n/a	0.0	0	0	0	FR2	5	R1030J
1161.134	0.865	2133549	REC_WORD	6.546	n/a	BEAN	-999	11	[0, 0, 0]	n/a	0	1	0	n/a	n/a	0.0	0	0	0	FR2	5	R1030J
1161.999	4.322	2134414	REC_WORD	7.411	n/a	BEER	-999	11	[0, 0, 0]	n/a	0	1	0	n/a	n/a	0.0	0	0	0	FR2	5	R1030J
1166.321	5.422	2138736	REC_WORD	11.733	n/a	STAR	-999	11	[0, 0, 0]	n/a	0	1	0	n/a	n/a	0.0	0	0	0	FR2	5	R1030J
1171.743	2.026	2144158	REC_WORD	17.155	n/a	FLEA	-999	11	[0, 0, 0]	n/a	0	1	0	n/a	n/a	0.0	0	0	0	FR2	5	R1030J
1173.769	10.831	2146184	REC_WORD	19.181	n/a	ROPE	-999	11	[0, 0, 0]	n/a	0	1	0	n/a	n/a	0.0	0	0	0	FR2	5	R1030J
1184.6	1.924	2157014	REC_END	n/a	n/a	n/a	-999	11	[0, 0, 0]	n/a	0	1	0	n/a	n/a	0.0	0	0	0	FR2	5	R1030J
1186.524	10.0	2158938	COUNTDOWN_START	n/a	n/a	n/a	-999	12	[0, 0, 0]	n/a	0	1	0	n/a	n/a	0.0	0	0	0	FR2	5	R1030J
1186.525	10.427	2158939	TRIAL	n/a	n/a	n/a	-999	12	[0, 0, 0]	n/a	0	1	0	n/a	n/a	0.0	0	0	0	FR2	5	R1030J
1196.952	0.008	2169366	COUNTDOWN_END	n/a	n/a	n/a	-999	12	[0, 0, 0]	n/a	0	1	0	n/a	n/a	0.0	0	0	0	FR2	5	R1030J
1196.96	1.6	2169374	ORIENT	n/a	n/a	n/a	-999	12	[0, 0, 0]	n/a	0	1	0	n/a	n/a	0.0	0	0	0	FR2	5	R1030J
1199.184	4.6	2171598	STIM_ON	n/a	n/a	n/a	-999	12	[0, 0, 0]	n/a	1	1	4600	LQ2	LQ3	500.0	50	230	300	FR2	5	R1030J
1199.397	1.6	2171811	WORD	n/a	wordpools/wordpool_EN.txt	BADGE	1	12	[0, 0, 0]	n/a	1	1	4600	LQ2	LQ3	500.0	50	230	300	FR2	5	R1030J
1201.784	1.6	2174198	WORD	n/a	wordpools/wordpool_EN.txt	RUG	2	12	[0, 0, 0]	n/a	1	1	4600	LQ2	LQ3	500.0	50	230	300	FR2	5	R1030J
1204.255	1.6	2176669	WORD	n/a	wordpools/wordpool_EN.txt	SEA	3	12	[0, 0, 0]	n/a	0	1	0	n/a	n/a	0.0	0	0	0	FR2	5	R1030J
1206.692	1.6	2179106	WORD	n/a	wordpools/wordpool_EN.txt	ROSE	4	12	[0, 0, 0]	n/a	0	1	0	n/a	n/a	0.0	0	0	0	FR2	5	R1030J
1208.958	4.6	2181372	STIM_ON	n/a	n/a	n/a	-999	12	[0, 0, 0]	n/a	1	1	4600	LQ2	LQ3	500.0	50	230	300	FR2	5	R1030J
1209.164	1.6	2181578	WORD	n/a	wordpools/wordpool_EN.txt	INK	5	12	[0, 0, 0]	n/a	1	1	4600	LQ2	LQ3	500.0	50	230	300	FR2	5	R1030J
1211.684	1.6	2184098	WORD	n/a	wordpools/wordpool_EN.txt	BOOK	6	12	[0, 0, 0]	n/a	1	1	4600	LQ2	LQ3	500.0	50	230	300	FR2	5	R1030J
1214.139	1.6	2186553	WORD	n/a	wordpools/wordpool_EN.txt	PEA	7	12	[0, 0, 0]	n/a	0	1	0	n/a	n/a	0.0	0	0	0	FR2	5	R1030J
1216.542	1.6	2188956	WORD	n/a	wordpools/wordpool_EN.txt	SHEET	8	12	[0, 0, 0]	n/a	0	1	0	n/a	n/a	0.0	0	0	0	FR2	5	R1030J
1218.746	4.6	2191160	STIM_ON	n/a	n/a	n/a	-999	12	[0, 0, 0]	n/a	1	1	4600	LQ2	LQ3	500.0	50	230	300	FR2	5	R1030J
1218.964	1.6	2191378	WORD	n/a	wordpools/wordpool_EN.txt	ROOF	9	12	[0, 0, 0]	n/a	1	1	4600	LQ2	LQ3	500.0	50	230	300	FR2	5	R1030J
1221.418	1.6	2193832	WORD	n/a	wordpools/wordpool_EN.txt	TRAY	10	12	[0, 0, 0]	n/a	1	1	4600	LQ2	LQ3	500.0	50	230	300	FR2	5	R1030J
1223.888	1.6	2196302	WORD	n/a	wordpools/wordpool_EN.txt	MOON	11	12	[0, 0, 0]	n/a	0	1	0	n/a	n/a	0.0	0	0	0	FR2	5	R1030J
1226.459	1.6	2198873	WORD	n/a	wordpools/wordpool_EN.txt	TRUCK	12	12	[0, 0, 0]	n/a	0	1	0	n/a	n/a	0.0	0	0	0	FR2	5	R1030J
1228.079	0.001	2200493	DISTRACT_START	n/a	n/a	n/a	-999	12	[0, 0, 0]	n/a	0	1	0	n/a	n/a	0.0	0	0	0	FR2	5	R1030J
1228.08	0.016	2200494	START	n/a	n/a	n/a	-999	12	[-999, -999, -999]	n/a	0	1	0	n/a	n/a	0.0	0	0	0	FR2	5	R1030J
1228.096	4.523	2200510	PROB	4.5	n/a	n/a	-999	12	[8, 7, 9]	24	0	1	0	n/a	n/a	0.0	0	0	0	FR2	5	R1030J
1232.619	2.438	2205033	PROB	2.402	n/a	n/a	-999	12	[1, 9, 4]	14	0	1	0	n/a	n/a	0.0	0	0	0	FR2	5	R1030J
1235.057	2.254	2207471	PROB	2.22	n/a	n/a	-999	12	[5, 9, 8]	22	0	1	0	n/a	n/a	0.0	0	0	0	FR2	5	R1030J
1237.311	2.621	2209725	PROB	2.591	n/a	n/a	-999	12	[3, 9, 8]	20	0	1	0	n/a	n/a	0.0	0	0	0	FR2	5	R1030J
1239.932	3.506	2212346	PROB	3.481	n/a	n/a	-999	12	[5, 8, 8]	21	0	1	0	n/a	n/a	0.0	0	0	0	FR2	5	R1030J
1243.438	2.721	2215852	PROB	2.687	n/a	n/a	-999	12	[2, 9, 8]	19	0	1	0	n/a	n/a	0.0	0	0	0	FR2	5	R1030J
1246.159	2.918	2218573	PROB	2.918	n/a	n/a	-999	12	[2, 2, 6]	10	0	1	0	n/a	n/a	0.0	0	0	0	FR2	5	R1030J
1249.077	0.02	2221491	STOP	n/a	n/a	n/a	-999	12	[-999, -999, -999]	n/a	0	1	0	n/a	n/a	0.0	0	0	0	FR2	5	R1030J
1249.097	1.12	2221511	DISTRACT_END	n/a	n/a	n/a	-999	12	[0, 0, 0]	n/a	0	1	0	n/a	n/a	0.0	0	0	0	FR2	5	R1030J
1250.217	2.816	2222631	REC_START	n/a	n/a	n/a	-999	12	[0, 0, 0]	n/a	0	1	0	n/a	n/a	0.0	0	0	0	FR2	5	R1030J
1253.033	5.029	2225447	REC_WORD	2.816	n/a	MOON	-999	12	[0, 0, 0]	n/a	0	1	0	n/a	n/a	0.0	0	0	0	FR2	5	R1030J
1258.062	10.518	2230476	REC_WORD	7.845	n/a	STAR	-999	12	[0, 0, 0]	n/a	0	1	0	n/a	n/a	0.0	0	0	0	FR2	5	R1030J
1268.58	11.65	2240994	REC_WORD	18.363	n/a	SHEET	-999	12	[0, 0, 0]	n/a	0	1	0	n/a	n/a	0.0	0	0	0	FR2	5	R1030J
1280.23	2.742	2252644	REC_END	n/a	n/a	n/a	-999	12	[0, 0, 0]	n/a	0	1	0	n/a	n/a	0.0	0	0	0	FR2	5	R1030J
1282.972	10.0	2255386	COUNTDOWN_START	n/a	n/a	n/a	-999	13	[0, 0, 0]	n/a	0	1	0	n/a	n/a	0.0	0	0	0	FR2	5	R1030J
1282.973	10.427	2255387	TRIAL	n/a	n/a	n/a	-999	13	[0, 0, 0]	n/a	0	1	0	n/a	n/a	0.0	0	0	0	FR2	5	R1030J
1293.4	0.005	2265813	COUNTDOWN_END	n/a	n/a	n/a	-999	13	[0, 0, 0]	n/a	0	1	0	n/a	n/a	0.0	0	0	0	FR2	5	R1030J
1293.405	1.6	2265818	ORIENT	n/a	n/a	n/a	-999	13	[0, 0, 0]	n/a	0	1	0	n/a	n/a	0.0	0	0	0	FR2	5	R1030J
1295.675	4.6	2268088	STIM_ON	n/a	n/a	n/a	-999	13	[0, 0, 0]	n/a	1	1	4600	LQ2	LQ3	500.0	50	230	300	FR2	5	R1030J
1295.893	1.6	2268306	WORD	n/a	wordpools/wordpool_EN.txt	SALT	1	13	[0, 0, 0]	n/a	1	1	4600	LQ2	LQ3	500.0	50	230	300	FR2	5	R1030J
1298.414	1.6	2270827	WORD	n/a	wordpools/wordpool_EN.txt	TRAIN	2	13	[0, 0, 0]	n/a	1	1	4600	LQ2	LQ3	500.0	50	230	300	FR2	5	R1030J
1300.885	1.6	2273298	WORD	n/a	wordpools/wordpool_EN.txt	HOUSE	3	13	[0, 0, 0]	n/a	0	1	0	n/a	n/a	0.0	0	0	0	FR2	5	R1030J
1303.339	1.6	2275752	WORD	n/a	wordpools/wordpool_EN.txt	BEAK	4	13	[0, 0, 0]	n/a	0	1	0	n/a	n/a	0.0	0	0	0	FR2	5	R1030J
1305.73	4.6	2278143	STIM_ON	n/a	n/a	n/a	-999	13	[0, 0, 0]	n/a	1	1	4600	LQ2	LQ3	500.0	50	230	300	FR2	5	R1030J
1305.943	1.6	2278356	WORD	n/a	wordpools/wordpool_EN.txt	HAND	5	13	[0, 0, 0]	n/a	1	1	4600	LQ2	LQ3	500.0	50	230	300	FR2	5	R1030J
1308.498	1.6	2280911	WORD	n/a	wordpools/wordpool_EN.txt	HILL	6	13	[0, 0, 0]	n/a	1	1	4600	LQ2	LQ3	500.0	50	230	300	FR2	5	R1030J
1310.901	1.6	2283314	WORD	n/a	wordpools/wordpool_EN.txt	HAT	7	13	[0, 0, 0]	n/a	0	1	0	n/a	n/a	0.0	0	0	0	FR2	5	R1030J
1313.423	1.6	2285836	WORD	n/a	wordpools/wordpool_EN.txt	SCHOOL	8	13	[0, 0, 0]	n/a	0	1	0	n/a	n/a	0.0	0	0	0	FR2	5	R1030J
1315.687	4.6	2288100	STIM_ON	n/a	n/a	n/a	-999	13	[0, 0, 0]	n/a	1	1	4600	LQ2	LQ3	500.0	50	230	300	FR2	5	R1030J
1315.893	1.6	2288306	WORD	n/a	wordpools/wordpool_EN.txt	CHEEK	9	13	[0, 0, 0]	n/a	1	1	4600	LQ2	LQ3	500.0	50	230	300	FR2	5	R1030J
1318.331	1.6	2290744	WORD	n/a	wordpools/wordpool_EN.txt	GRAPE	10	13	[0, 0, 0]	n/a	1	1	4600	LQ2	LQ3	500.0	50	230	300	FR2	5	R1030J
1320.734	1.6	2293147	WORD	n/a	wordpools/wordpool_EN.txt	SEAT	11	13	[0, 0, 0]	n/a	0	1	0	n/a	n/a	0.0	0	0	0	FR2	5	R1030J
1323.256	1.6	2295669	WORD	n/a	wordpools/wordpool_EN.txt	PURSE	12	13	[0, 0, 0]	n/a	0	1	0	n/a	n/a	0.0	0	0	0	FR2	5	R1030J
1324.875	0.001	2297288	DISTRACT_START	n/a	n/a	n/a	-999	13	[0, 0, 0]	n/a	0	1	0	n/a	n/a	0.0	0	0	0	FR2	5	R1030J
1324.876	0.016	2297289	START	n/a	n/a	n/a	-999	13	[-999, -999, -999]	n/a	0	1	0	n/a	n/a	0.0	0	0	0	FR2	5	R1030J
1324.892	3.138	2297305	PROB	3.114	n/a	n/a	-999	13	[1, 6, 9]	16	0	1	0	n/a	n/a	0.0	0	0	0	FR2	5	R1030J
1328.03	2.939	2300443	PROB	2.912	n/a	n/a	-999	13	[6, 9, 4]	19	0	1	0	n/a	n/a	0.0	0	0	0	FR2	5	R1030J
1330.969	1.869	2303382	PROB	1.837	n/a	n/a	-999	13	[6, 6, 6]	18	0	1	0	n/a	n/a	0.0	0	0	0	FR2	5	R1030J
1332.838	2.121	2305251	PROB	2.088	n/a	n/a	-999	13	[3, 3, 6]	12	0	1	0	n/a	n/a	0.0	0	0	0	FR2	5	R1030J
1334.959	1.886	2307372	PROB	1.863	n/a	n/a	-999	13	[2, 1, 4]	7	0	1	0	n/a	n/a	0.0	0	0	0	FR2	5	R1030J
1336.845	2.638	2309258	PROB	2.601	n/a	n/a	-999	13	[5, 4, 1]	10	0	1	0	n/a	n/a	0.0	0	0	0	FR2	5	R1030J
1339.483	3.005	2311896	PROB	2.971	n/a	n/a	-999	13	[5, 6, 6]	17	0	1	0	n/a	n/a	0.0	0	0	0	FR2	5	R1030J
1342.488	2.387	2314901	PROB	2.342	n/a	n/a	-999	13	[4, 1, 5]	10	0	1	0	n/a	n/a	0.0	0	0	0	FR2	5	R1030J
1344.875	2.163	2317288	PROB	2.163	n/a	n/a	-999	13	[1, 5, 2]	8	0	1	0	n/a	n/a	0.0	0	0	0	FR2	5	R1030J
1347.038	0.008	2319451	STOP	n/a	n/a	n/a	-999	13	[-999, -999, -999]	n/a	0	1	0	n/a	n/a	0.0	0	0	0	FR2	5	R1030J
1347.046	1.152	2319459	DISTRACT_END	n/a	n/a	n/a	-999	13	[0, 0, 0]	n/a	0	1	0	n/a	n/a	0.0	0	0	0	FR2	5	R1030J
1348.198	23.049	2320611	REC_START	n/a	n/a	n/a	-999	13	[0, 0, 0]	n/a	0	1	0	n/a	n/a	0.0	0	0	0	FR2	5	R1030J
1371.247	6.951	2343660	REC_WORD_VV	23.049	n/a	<>	-999	13	[0, 0, 0]	n/a	0	1	0	n/a	n/a	0.0	0	0	0	FR2	5	R1030J
1378.198	0.013	2350611	REC_WORD_VV	30.0	n/a	<>	-999	13	[0, 0, 0]	n/a	0	1	0	n/a	n/a	0.0	0	0	0	FR2	5	R1030J
1378.211	2.39	2350624	REC_END	n/a	n/a	n/a	-999	13	[0, 0, 0]	n/a	0	1	0	n/a	n/a	0.0	0	0	0	FR2	5	R1030J
1380.601	0.0	2353014	TRIAL	n/a	n/a	n/a	-999	14	[0, 0, 0]	n/a	0	1	0	n/a	n/a	0.0	0	0	0	FR2	5	R1030J
1380.601	10.0	2353014	COUNTDOWN_START	n/a	n/a	n/a	-999	14	[0, 0, 0]	n/a	0	1	0	n/a	n/a	0.0	0	0	0	FR2	5	R1030J
1391.029	0.007	2363442	COUNTDOWN_END	n/a	n/a	n/a	-999	14	[0, 0, 0]	n/a	0	1	0	n/a	n/a	0.0	0	0	0	FR2	5	R1030J
1391.036	1.6	2363449	ORIENT	n/a	n/a	n/a	-999	14	[0, 0, 0]	n/a	0	1	0	n/a	n/a	0.0	0	0	0	FR2	5	R1030J
1393.455	4.6	2365867	STIM_ON	n/a	n/a	n/a	-999	14	[0, 0, 0]	n/a	1	1	4600	LQ2	LQ3	500.0	50	230	300	FR2	5	R1030J
1393.673	1.6	2366085	WORD	n/a	wordpools/wordpool_EN.txt	TEA	1	14	[0, 0, 0]	n/a	1	1	4600	LQ2	LQ3	500.0	50	230	300	FR2	5	R1030J
1396.111	1.6	2368523	WORD	n/a	wordpools/wordpool_EN.txt	BRIDGE	2	14	[0, 0, 0]	n/a	1	1	4600	LQ2	LQ3	500.0	50	230	300	FR2	5	R1030J
1398.498	1.6	2370910	WORD	n/a	wordpools/wordpool_EN.txt	SEAL	3	14	[0, 0, 0]	n/a	0	1	0	n/a	n/a	0.0	0	0	0	FR2	5	R1030J
1401.037	1.6	2373449	WORD	n/a	wordpools/wordpool_EN.txt	TOOL	4	14	[0, 0, 0]	n/a	0	1	0	n/a	n/a	0.0	0	0	0	FR2	5	R1030J
1403.292	4.6	2375704	STIM_ON	n/a	n/a	n/a	-999	14	[0, 0, 0]	n/a	1	1	4600	LQ2	LQ3	500.0	50	230	300	FR2	5	R1030J
1403.506	1.6	2375918	WORD	n/a	wordpools/wordpool_EN.txt	SNAKE	5	14	[0, 0, 0]	n/a	1	1	4600	LQ2	LQ3	500.0	50	230	300	FR2	5	R1030J
1406.112	1.6	2378524	WORD	n/a	wordpools/wordpool_EN.txt	BOAT	6	14	[0, 0, 0]	n/a	1	1	4600	LQ2	LQ3	500.0	50	230	300	FR2	5	R1030J
1408.748	1.6	2381160	WORD	n/a	wordpools/wordpool_EN.txt	BUSH	7	14	[0, 0, 0]	n/a	0	1	0	n/a	n/a	0.0	0	0	0	FR2	5	R1030J
1411.321	1.6	2383733	WORD	n/a	wordpools/wordpool_EN.txt	TOY	8	14	[0, 0, 0]	n/a	0	1	0	n/a	n/a	0.0	0	0	0	FR2	5	R1030J
1413.744	4.6	2386156	STIM_ON	n/a	n/a	n/a	-999	14	[0, 0, 0]	n/a	1	1	4600	LQ2	LQ3	500.0	50	230	300	FR2	5	R1030J
1413.958	1.6	2386370	WORD	n/a	wordpools/wordpool_EN.txt	FACE	9	14	[0, 0, 0]	n/a	1	1	4600	LQ2	LQ3	500.0	50	230	300	FR2	5	R1030J
1416.578	1.6	2388990	WORD	n/a	wordpools/wordpool_EN.txt	ARM	10	14	[0, 0, 0]	n/a	1	1	4600	LQ2	LQ3	500.0	50	230	300	FR2	5	R1030J
1419.05	1.6	2391462	WORD	n/a	wordpools/wordpool_EN.txt	THUMB	11	14	[0, 0, 0]	n/a	0	1	0	n/a	n/a	0.0	0	0	0	FR2	5	R1030J
1421.471	1.6	2393883	WORD	n/a	wordpools/wordpool_EN.txt	STOVE	12	14	[0, 0, 0]	n/a	0	1	0	n/a	n/a	0.0	0	0	0	FR2	5	R1030J
1423.09	0.002	2395502	DISTRACT_START	n/a	n/a	n/a	-999	14	[0, 0, 0]	n/a	0	1	0	n/a	n/a	0.0	0	0	0	FR2	5	R1030J
1423.092	0.015	2395504	START	n/a	n/a	n/a	-999	14	[-999, -999, -999]	n/a	0	1	0	n/a	n/a	0.0	0	0	0	FR2	5	R1030J
1423.107	2.905	2395519	PROB	2.876	n/a	n/a	-999	14	[5, 9, 9]	23	0	1	0	n/a	n/a	0.0	0	0	0	FR2	5	R1030J
1426.012	2.187	2398424	PROB	2.163	n/a	n/a	-999	14	[3, 4, 1]	8	0	1	0	n/a	n/a	0.0	0	0	0	FR2	5	R1030J
1428.199	2.755	2400611	PROB	2.72	n/a	n/a	-999	14	[9, 8, 9]	26	0	1	0	n/a	n/a	0.0	0	0	0	FR2	5	R1030J
1430.954	2.487	2403366	PROB	2.461	n/a	n/a	-999	14	[2, 5, 6]	13	0	1	0	n/a	n/a	0.0	0	0	0	FR2	5	R1030J
1433.441	2.538	2405853	PROB	2.502	n/a	n/a	-999	14	[3, 7, 2]	12	0	1	0	n/a	n/a	0.0	0	0	0	FR2	5	R1030J
1435.979	2.086	2408391	PROB	2.052	n/a	n/a	-999	14	[1, 6, 1]	8	0	1	0	n/a	n/a	0.0	0	0	0	FR2	5	R1030J
1438.065	2.171	2410477	PROB	2.142	n/a	n/a	-999	14	[4, 1, 5]	10	0	1	0	n/a	n/a	0.0	0	0	0	FR2	5	R1030J
1440.236	2.269	2412648	PROB	2.235	n/a	n/a	-999	14	[2, 2, 9]	13	0	1	0	n/a	n/a	0.0	0	0	0	FR2	5	R1030J
1442.505	2.269	2414917	PROB	2.269	n/a	n/a	-999	14	[3, 9, 9]	21	0	1	0	n/a	n/a	0.0	0	0	0	FR2	5	R1030J
1444.774	0.019	2417186	STOP	n/a	n/a	n/a	-999	14	[-999, -999, -999]	n/a	0	1	0	n/a	n/a	0.0	0	0	0	FR2	5	R1030J
1444.793	1.12	2417205	DISTRACT_END	n/a	n/a	n/a	-999	14	[0, 0, 0]	n/a	0	1	0	n/a	n/a	0.0	0	0	0	FR2	5	R1030J
1445.913	1.18	2418325	REC_START	n/a	n/a	n/a	-999	14	[0, 0, 0]	n/a	0	1	0	n/a	n/a	0.0	0	0	0	FR2	5	R1030J
1447.093	0.829	2419505	REC_WORD	1.18	n/a	SOAP	-999	14	[0, 0, 0]	n/a	0	1	0	n/a	n/a	0.0	0	0	0	FR2	5	R1030J
1447.922	0.686	2420334	REC_WORD	2.009	n/a	TEA	-999	14	[0, 0, 0]	n/a	0	1	0	n/a	n/a	0.0	0	0	0	FR2	5	R1030J
1448.608	0.767	2421020	REC_WORD	2.695	n/a	BUSH	-999	14	[0, 0, 0]	n/a	0	1	0	n/a	n/a	0.0	0	0	0	FR2	5	R1030J
1449.375	5.338	2421787	REC_WORD	3.462	n/a	BOAT	-999	14	[0, 0, 0]	n/a	0	1	0	n/a	n/a	0.0	0	0	0	FR2	5	R1030J
1454.713	7.582	2427125	REC_WORD	8.8	n/a	SEAL	-999	14	[0, 0, 0]	n/a	0	1	0	n/a	n/a	0.0	0	0	0	FR2	5	R1030J
1462.295	0.643	2434707	REC_WORD	16.382	n/a	ARM	-999	14	[0, 0, 0]	n/a	0	1	0	n/a	n/a	0.0	0	0	0	FR2	5	R1030J
1462.938	12.988	2435350	REC_WORD	17.025	n/a	FACE	-999	14	[0, 0, 0]	n/a	0	1	0	n/a	n/a	0.0	0	0	0	FR2	5	R1030J
1475.926	1.973	2448338	REC_END	n/a	n/a	n/a	-999	14	[0, 0, 0]	n/a	0	1	0	n/a	n/a	0.0	0	0	0	FR2	5	R1030J
1477.899	10.0	2450311	COUNTDOWN_START	n/a	n/a	n/a	-999	15	[0, 0, 0]	n/a	0	1	0	n/a	n/a	0.0	0	0	0	FR2	5	R1030J
1477.9	10.427	2450312	TRIAL	n/a	n/a	n/a	-999	15	[0, 0, 0]	n/a	0	1	0	n/a	n/a	0.0	0	0	0	FR2	5	R1030J
1488.327	0.006	2460739	COUNTDOWN_END	n/a	n/a	n/a	-999	15	[0, 0, 0]	n/a	0	1	0	n/a	n/a	0.0	0	0	0	FR2	5	R1030J
1488.333	1.6	2460745	ORIENT	n/a	n/a	n/a	-999	15	[0, 0, 0]	n/a	0	1	0	n/a	n/a	0.0	0	0	0	FR2	5	R1030J
1490.729	4.6	2463141	STIM_ON	n/a	n/a	n/a	-999	15	[0, 0, 0]	n/a	1	1	4600	LQ2	LQ3	500.0	50	230	300	FR2	5	R1030J
1490.954	1.6	2463366	WORD	n/a	wordpools/wordpool_EN.txt	BEE	1	15	[0, 0, 0]	n/a	1	1	4600	LQ2	LQ3	500.0	50	230	300	FR2	5	R1030J
1493.409	1.6	2465821	WORD	n/a	wordpools/wordpool_EN.txt	MUG	2	15	[0, 0, 0]	n/a	1	1	4600	LQ2	LQ3	500.0	50	230	300	FR2	5	R1030J
1495.863	1.6	2468275	WORD	n/a	wordpools/wordpool_EN.txt	ARK	3	15	[0, 0, 0]	n/a	0	1	0	n/a	n/a	0.0	0	0	0	FR2	5	R1030J
1498.367	1.6	2470778	WORD	n/a	wordpools/wordpool_EN.txt	TEETH	4	15	[0, 0, 0]	n/a	0	1	0	n/a	n/a	0.0	0	0	0	FR2	5	R1030J
1500.734	4.6	2473145	STIM_ON	n/a	n/a	n/a	-999	15	[0, 0, 0]	n/a	1	1	4600	LQ2	LQ3	500.0	50	230	300	FR2	5	R1030J
1500.955	1.6	2473366	WORD	n/a	wordpools/wordpool_EN.txt	WALL	5	15	[0, 0, 0]	n/a	1	1	4600	LQ2	LQ3	500.0	50	230	300	FR2	5	R1030J
1503.342	1.6	2475753	WORD	n/a	wordpools/wordpool_EN.txt	SIGN	6	15	[0, 0, 0]	n/a	1	1	4600	LQ2	LQ3	500.0	50	230	300	FR2	5	R1030J
1505.813	1.6	2478224	WORD	n/a	wordpools/wordpool_EN.txt	JEEP	7	15	[0, 0, 0]	n/a	0	1	0	n/a	n/a	0.0	0	0	0	FR2	5	R1030J
1508.417	1.6	2480828	WORD	n/a	wordpools/wordpool_EN.txt	FOOD	8	15	[0, 0, 0]	n/a	0	1	0	n/a	n/a	0.0	0	0	0	FR2	5	R1030J
1510.605	4.6	2483016	STIM_ON	n/a	n/a	n/a	-999	15	[0, 0, 0]	n/a	1	1	4600	LQ2	LQ3	500.0	50	230	300	FR2	5	R1030J
1510.821	1.6	2483232	WORD	n/a	wordpools/wordpool_EN.txt	BAND	9	15	[0, 0, 0]	n/a	1	1	4600	LQ2	LQ3	500.0	50	230	300	FR2	5	R1030J
1513.342	1.6	2485753	WORD	n/a	wordpools/wordpool_EN.txt	FRUIT	10	15	[0, 0, 0]	n/a	1	1	4600	LQ2	LQ3	500.0	50	230	300	FR2	5	R1030J
1515.745	1.6	2488156	WORD	n/a	wordpools/wordpool_EN.txt	NOSE	11	15	[0, 0, 0]	n/a	0	1	0	n/a	n/a	0.0	0	0	0	FR2	5	R1030J
1518.167	1.6	2490578	WORD	n/a	wordpools/wordpool_EN.txt	TOOTH	12	15	[0, 0, 0]	n/a	0	1	0	n/a	n/a	0.0	0	0	0	FR2	5	R1030J
1519.785	0.001	2492196	DISTRACT_START	n/a	n/a	n/a	-999	15	[0, 0, 0]	n/a	0	1	0	n/a	n/a	0.0	0	0	0	FR2	5	R1030J
1519.786	0.017	2492197	START	n/a	n/a	n/a	-999	15	[-999, -999, -999]	n/a	0	1	0	n/a	n/a	0.0	0	0	0	FR2	5	R1030J
1519.803	2.954	2492214	PROB	2.928	n/a	n/a	-999	15	[9, 3, 2]	14	0	1	0	n/a	n/a	0.0	0	0	0	FR2	5	R1030J
1522.757	4.141	2495168	PROB	4.111	n/a	n/a	-999	15	[2, 7, 6]	15	0	1	0	n/a	n/a	0.0	0	0	0	FR2	5	R1030J
1526.898	3.222	2499309	PROB	3.194	n/a	n/a	-999	15	[8, 9, 1]	18	0	1	0	n/a	n/a	0.0	0	0	0	FR2	5	R1030J
1530.12	2.087	2502531	PROB	2.06	n/a	n/a	-999	15	[2, 1, 1]	4	0	1	0	n/a	n/a	0.0	0	0	0	FR2	5	R1030J
1532.207	3.105	2504618	PROB	3.069	n/a	n/a	-999	15	[7, 6, 1]	14	0	1	0	n/a	n/a	0.0	0	0	0	FR2	5	R1030J
1535.312	2.287	2507723	PROB	2.259	n/a	n/a	-999	15	[6, 3, 9]	18	0	1	0	n/a	n/a	0.0	0	0	0	FR2	5	R1030J
1537.599	3.885	2510010	PROB	3.885	n/a	n/a	-999	15	[2, 8, 9]	19	0	1	0	n/a	n/a	0.0	0	0	0	FR2	5	R1030J
1541.484	0.021	2513895	STOP	n/a	n/a	n/a	-999	15	[-999, -999, -999]	n/a	0	1	0	n/a	n/a	0.0	0	0	0	FR2	5	R1030J
1541.505	1.103	2513916	DISTRACT_END	n/a	n/a	n/a	-999	15	[0, 0, 0]	n/a	0	1	0	n/a	n/a	0.0	0	0	0	FR2	5	R1030J
1542.608	1.736	2515019	REC_START	n/a	n/a	n/a	-999	15	[0, 0, 0]	n/a	0	1	0	n/a	n/a	0.0	0	0	0	FR2	5	R1030J
1544.344	25.251	2516755	REC_WORD	1.736	n/a	FRUIT	-999	15	[0, 0, 0]	n/a	0	1	0	n/a	n/a	0.0	0	0	0	FR2	5	R1030J
1569.595	3.026	2542006	REC_WORD	26.987	n/a	JEEP	-999	15	[0, 0, 0]	n/a	0	1	0	n/a	n/a	0.0	0	0	0	FR2	5	R1030J
1572.621	2.342	2545032	REC_END	n/a	n/a	n/a	-999	15	[0, 0, 0]	n/a	0	1	0	n/a	n/a	0.0	0	0	0	FR2	5	R1030J
1574.963	10.0	2547374	COUNTDOWN_START	n/a	n/a	n/a	-999	16	[0, 0, 0]	n/a	0	1	0	n/a	n/a	0.0	0	0	0	FR2	5	R1030J
1574.963	10.428	2547374	TRIAL	n/a	n/a	n/a	-999	16	[0, 0, 0]	n/a	0	1	0	n/a	n/a	0.0	0	0	0	FR2	5	R1030J
1585.391	0.006	2557802	COUNTDOWN_END	n/a	n/a	n/a	-999	16	[0, 0, 0]	n/a	0	1	0	n/a	n/a	0.0	0	0	0	FR2	5	R1030J
1585.397	1.6	2557808	ORIENT	n/a	n/a	n/a	-999	16	[0, 0, 0]	n/a	0	1	0	n/a	n/a	0.0	0	0	0	FR2	5	R1030J
1587.851	1.6	2560262	WORD	n/a	wordpools/wordpool_EN.txt	VASE	1	16	[0, 0, 0]	n/a	0	1	0	n/a	n/a	0.0	0	0	0	FR2	5	R1030J
1590.406	1.6	2562817	WORD	n/a	wordpools/wordpool_EN.txt	STEAM	2	16	[0, 0, 0]	n/a	0	1	0	n/a	n/a	0.0	0	0	0	FR2	5	R1030J
1592.684	4.6	2565095	STIM_ON	n/a	n/a	n/a	-999	16	[0, 0, 0]	n/a	1	1	4600	LQ2	LQ3	500.0	50	230	300	FR2	5	R1030J
1592.893	1.6	2565304	WORD	n/a	wordpools/wordpool_EN.txt	SLUSH	3	16	[0, 0, 0]	n/a	1	1	4600	LQ2	LQ3	500.0	50	230	300	FR2	5	R1030J
1595.381	1.6	2567792	WORD	n/a	wordpools/wordpool_EN.txt	MAT	4	16	[0, 0, 0]	n/a	1	1	4600	LQ2	LQ3	500.0	50	230	300	FR2	5	R1030J
1597.834	1.6	2570245	WORD	n/a	wordpools/wordpool_EN.txt	WHEEL	5	16	[0, 0, 0]	n/a	0	1	0	n/a	n/a	0.0	0	0	0	FR2	5	R1030J
1600.255	1.6	2572666	WORD	n/a	wordpools/wordpool_EN.txt	BROOM	6	16	[0, 0, 0]	n/a	0	1	0	n/a	n/a	0.0	0	0	0	FR2	5	R1030J
1602.58	4.6	2574991	STIM_ON	n/a	n/a	n/a	-999	16	[0, 0, 0]	n/a	1	1	4600	LQ2	LQ3	500.0	50	230	300	FR2	5	R1030J
1602.793	1.6	2575203	WORD	n/a	wordpools/wordpool_EN.txt	TOAST	7	16	[0, 0, 0]	n/a	1	1	4600	LQ2	LQ3	500.0	50	230	300	FR2	5	R1030J
1605.397	1.6	2577807	WORD	n/a	wordpools/wordpool_EN.txt	STRING	8	16	[0, 0, 0]	n/a	1	1	4600	LQ2	LQ3	500.0	50	230	300	FR2	5	R1030J
1608.001	1.6	2580411	WORD	n/a	wordpools/wordpool_EN.txt	SMILE	9	16	[0, 0, 0]	n/a	0	1	0	n/a	n/a	0.0	0	0	0	FR2	5	R1030J
1610.638	1.6	2583048	WORD	n/a	wordpools/wordpool_EN.txt	BEAN	10	16	[0, 0, 0]	n/a	0	1	0	n/a	n/a	0.0	0	0	0	FR2	5	R1030J
1613.032	4.6	2585442	STIM_ON	n/a	n/a	n/a	-999	16	[0, 0, 0]	n/a	1	1	4600	LQ2	LQ3	500.0	50	230	300	FR2	5	R1030J
1613.244	1.6	2585654	WORD	n/a	wordpools/wordpool_EN.txt	BOX	11	16	[0, 0, 0]	n/a	1	1	4600	LQ2	LQ3	500.0	50	230	300	FR2	5	R1030J
1615.663	1.6	2588073	WORD	n/a	wordpools/wordpool_EN.txt	GOAT	12	16	[0, 0, 0]	n/a	1	1	4600	LQ2	LQ3	500.0	50	230	300	FR2	5	R1030J
1617.267	0.001	2589677	DISTRACT_START	n/a	n/a	n/a	-999	16	[0, 0, 0]	n/a	1	1	4600	LQ2	LQ3	500.0	50	230	300	FR2	5	R1030J
1617.268	0.016	2589678	START	n/a	n/a	n/a	-999	16	[-999, -999, -999]	n/a	0	1	0	n/a	n/a	0.0	0	0	0	FR2	5	R1030J
1617.284	6.026	2589694	PROB	5.997	n/a	n/a	-999	16	[4, 3, 5]	12	0	1	0	n/a	n/a	0.0	0	0	0	FR2	5	R1030J
1623.31	4.541	2595720	PROB	4.507	n/a	n/a	-999	16	[3, 2, 2]	7	0	1	0	n/a	n/a	0.0	0	0	0	FR2	5	R1030J
1627.851	6.778	2600261	PROB	6.741	n/a	n/a	-999	16	[9, 2, 3]	14	0	1	0	n/a	n/a	0.0	0	0	0	FR2	5	R1030J
1634.629	3.58	2607039	PROB	3.58	n/a	n/a	-999	16	[9, 5, 7]	21	0	1	0	n/a	n/a	0.0	0	0	0	FR2	5	R1030J
1638.209	0.011	2610619	STOP	n/a	n/a	n/a	-999	16	[-999, -999, -999]	n/a	0	1	0	n/a	n/a	0.0	0	0	0	FR2	5	R1030J
1638.22	1.052	2610630	DISTRACT_END	n/a	n/a	n/a	-999	16	[0, 0, 0]	n/a	0	1	0	n/a	n/a	0.0	0	0	0	FR2	5	R1030J
1639.272	2.68	2611682	REC_START	n/a	n/a	n/a	-999	16	[0, 0, 0]	n/a	0	1	0	n/a	n/a	0.0	0	0	0	FR2	5	R1030J
1641.952	1.867	2614362	REC_WORD_VV	2.68	n/a	<>	-999	16	[0, 0, 0]	n/a	0	1	0	n/a	n/a	0.0	0	0	0	FR2	5	R1030J
1643.819	0.717	2616229	REC_WORD	4.547	n/a	WHEEL	-999	16	[0, 0, 0]	n/a	0	1	0	n/a	n/a	0.0	0	0	0	FR2	5	R1030J
1644.536	0.764	2616946	REC_WORD	5.264	n/a	WAGON	-999	16	[0, 0, 0]	n/a	0	1	0	n/a	n/a	0.0	0	0	0	FR2	5	R1030J
1645.3	23.985	2617710	REC_WORD	6.028	n/a	BOX	-999	16	[0, 0, 0]	n/a	0	1	0	n/a	n/a	0.0	0	0	0	FR2	5	R1030J
1669.285	2.339	2641695	REC_END	n/a	n/a	n/a	-999	16	[0, 0, 0]	n/a	0	1	0	n/a	n/a	0.0	0	0	0	FR2	5	R1030J
1671.624	0.0	2644034	TRIAL	n/a	n/a	n/a	-999	17	[0, 0, 0]	n/a	0	1	0	n/a	n/a	0.0	0	0	0	FR2	5	R1030J
1671.624	10.0	2644034	COUNTDOWN_START	n/a	n/a	n/a	-999	17	[0, 0, 0]	n/a	0	1	0	n/a	n/a	0.0	0	0	0	FR2	5	R1030J
1682.052	0.007	2654462	COUNTDOWN_END	n/a	n/a	n/a	-999	17	[0, 0, 0]	n/a	0	1	0	n/a	n/a	0.0	0	0	0	FR2	5	R1030J
1682.059	1.6	2654469	ORIENT	n/a	n/a	n/a	-999	17	[0, 0, 0]	n/a	0	1	0	n/a	n/a	0.0	0	0	0	FR2	5	R1030J
1684.333	4.6	2656743	STIM_ON	n/a	n/a	n/a	-999	17	[0, 0, 0]	n/a	1	1	4600	LQ2	LQ3	500.0	50	230	300	FR2	5	R1030J
1684.546	1.6	2656956	WORD	n/a	wordpools/wordpool_EN.txt	DOCK	1	17	[0, 0, 0]	n/a	1	1	4600	LQ2	LQ3	500.0	50	230	300	FR2	5	R1030J
1686.968	1.6	2659378	WORD	n/a	wordpools/wordpool_EN.txt	STORE	2	17	[0, 0, 0]	n/a	1	1	4600	LQ2	LQ3	500.0	50	230	300	FR2	5	R1030J
1689.489	1.6	2661899	WORD	n/a	wordpools/wordpool_EN.txt	POND	3	17	[0, 0, 0]	n/a	0	1	0	n/a	n/a	0.0	0	0	0	FR2	5	R1030J
1692.06	1.6	2664470	WORD	n/a	wordpools/wordpool_EN.txt	COW	4	17	[0, 0, 0]	n/a	0	1	0	n/a	n/a	0.0	0	0	0	FR2	5	R1030J
1694.443	4.6	2666853	STIM_ON	n/a	n/a	n/a	-999	17	[0, 0, 0]	n/a	1	1	4600	LQ2	LQ3	500.0	50	230	300	FR2	5	R1030J
1694.663	1.6	2667073	WORD	n/a	wordpools/wordpool_EN.txt	SKUNK	5	17	[0, 0, 0]	n/a	1	1	4600	LQ2	LQ3	500.0	50	230	300	FR2	5	R1030J
1697.085	1.6	2669495	WORD	n/a	wordpools/wordpool_EN.txt	BLOOM	6	17	[0, 0, 0]	n/a	1	1	4600	LQ2	LQ3	500.0	50	230	300	FR2	5	R1030J
1699.621	1.6	2672031	WORD	n/a	wordpools/wordpool_EN.txt	WAND	7	17	[0, 0, 0]	n/a	0	1	0	n/a	n/a	0.0	0	0	0	FR2	5	R1030J
1702.21	1.6	2674620	WORD	n/a	wordpools/wordpool_EN.txt	FLAG	8	17	[0, 0, 0]	n/a	0	1	0	n/a	n/a	0.0	0	0	0	FR2	5	R1030J
1704.495	4.6	2676905	STIM_ON	n/a	n/a	n/a	-999	17	[0, 0, 0]	n/a	1	1	4600	LQ2	LQ3	500.0	50	230	300	FR2	5	R1030J
1704.713	1.6	2677123	WORD	n/a	wordpools/wordpool_EN.txt	VINE	9	17	[0, 0, 0]	n/a	1	1	4600	LQ2	LQ3	500.0	50	230	300	FR2	5	R1030J
1707.135	1.6	2679545	WORD	n/a	wordpools/wordpool_EN.txt	RAT	10	17	[0, 0, 0]	n/a	1	1	4600	LQ2	LQ3	500.0	50	230	300	FR2	5	R1030J
1709.605	1.6	2682014	WORD	n/a	wordpools/wordpool_EN.txt	WAVE	11	17	[0, 0, 0]	n/a	0	1	0	n/a	n/a	0.0	0	0	0	FR2	5	R1030J
1712.077	1.6	2684486	WORD	n/a	wordpools/wordpool_EN.txt	SNOW	12	17	[0, 0, 0]	n/a	0	1	0	n/a	n/a	0.0	0	0	0	FR2	5	R1030J
1713.695	0.001	2686104	DISTRACT_START	n/a	n/a	n/a	-999	17	[0, 0, 0]	n/a	0	1	0	n/a	n/a	0.0	0	0	0	FR2	5	R1030J
1713.696	0.016	2686105	START	n/a	n/a	n/a	-999	17	[-999, -999, -999]	n/a	0	1	0	n/a	n/a	0.0	0	0	0	FR2	5	R1030J
1713.712	3.39	2686121	PROB	3.354	n/a	n/a	-999	17	[9, 1, 9]	19	0	1	0	n/a	n/a	0.0	0	0	0	FR2	5	R1030J
1717.102	3.538	2689511	PROB	3.507	n/a	n/a	-999	17	[4, 2, 4]	10	0	1	0	n/a	n/a	0.0	0	0	0	FR2	5	R1030J
1720.64	2.789	2693049	PROB	2.762	n/a	n/a	-999	17	[3, 3, 9]	15	0	1	0	n/a	n/a	0.0	0	0	0	FR2	5	R1030J
1723.429	2.437	2695838	PROB	2.405	n/a	n/a	-999	17	[6, 5, 3]	14	0	1	0	n/a	n/a	0.0	0	0	0	FR2	5	R1030J
1725.866	3.206	2698275	PROB	3.176	n/a	n/a	-999	17	[7, 4, 9]	20	0	1	0	n/a	n/a	0.0	0	0	0	FR2	5	R1030J
1729.072	2.62	2701481	PROB	2.593	n/a	n/a	-999	17	[8, 5, 1]	14	0	1	0	n/a	n/a	0.0	0	0	0	FR2	5	R1030J
1731.692	2.901	2704101	PROB	2.901	n/a	n/a	-999	17	[4, 7, 9]	20	0	1	0	n/a	n/a	0.0	0	0	0	FR2	5	R1030J
1734.593	0.02	2707002	STOP	n/a	n/a	n/a	-999	17	[-999, -999, -999]	n/a	0	1	0	n/a	n/a	0.0	0	0	0	FR2	5	R1030J
1734.613	1.07	2707022	DISTRACT_END	n/a	n/a	n/a	-999	17	[0, 0, 0]	n/a	0	1	0	n/a	n/a	0.0	0	0	0	FR2	5	R1030J
1735.683	6.278	2708092	REC_START	n/a	n/a	n/a	-999	17	[0, 0, 0]	n/a	0	1	0	n/a	n/a	0.0	0	0	0	FR2	5	R1030J
1741.961	1.042	2714370	REC_WORD	6.278	n/a	FLEA	-999	17	[0, 0, 0]	n/a	0	1	0	n/a	n/a	0.0	0	0	0	FR2	5	R1030J
1743.003	22.693	2715412	REC_WORD	7.32	n/a	MAT	-999	17	[0, 0, 0]	n/a	0	1	0	n/a	n/a	0.0	0	0	0	FR2	5	R1030J
1765.696	1.806	2738105	REC_END	n/a	n/a	n/a	-999	17	[0, 0, 0]	n/a	0	1	0	n/a	n/a	0.0	0	0	0	FR2	5	R1030J
1767.502	10.0	2739911	COUNTDOWN_START	n/a	n/a	n/a	-999	18	[0, 0, 0]	n/a	0	0	0	n/a	n/a	0.0	0	0	0	FR2	5	R1030J
1767.503	10.427	2739912	TRIAL	n/a	n/a	n/a	-999	18	[0, 0, 0]	n/a	0	0	0	n/a	n/a	0.0	0	0	0	FR2	5	R1030J
1777.93	0.007	2750339	COUNTDOWN_END	n/a	n/a	n/a	-999	18	[0, 0, 0]	n/a	0	0	0	n/a	n/a	0.0	0	0	0	FR2	5	R1030J
1777.937	1.6	2750346	ORIENT	n/a	n/a	n/a	-999	18	[0, 0, 0]	n/a	0	0	0	n/a	n/a	0.0	0	0	0	FR2	5	R1030J
1780.358	1.6	2752767	WORD	n/a	wordpools/wordpool_EN.txt	COIN	1	18	[0, 0, 0]	n/a	0	0	0	n/a	n/a	0.0	0	0	0	FR2	5	R1030J
1782.946	1.6	2755355	WORD	n/a	wordpools/wordpool_EN.txt	LOCK	2	18	[0, 0, 0]	n/a	0	0	0	n/a	n/a	0.0	0	0	0	FR2	5	R1030J
1785.516	1.6	2757925	WORD	n/a	wordpools/wordpool_EN.txt	CAKE	3	18	[0, 0, 0]	n/a	0	0	0	n/a	n/a	0.0	0	0	0	FR2	5	R1030J
1788.021	1.6	2760430	WORD	n/a	wordpools/wordpool_EN.txt	SHIRT	4	18	[0, 0, 0]	n/a	0	0	0	n/a	n/a	0.0	0	0	0	FR2	5	R1030J
1790.658	1.6	2763067	WORD	n/a	wordpools/wordpool_EN.txt	RICE	5	18	[0, 0, 0]	n/a	0	0	0	n/a	n/a	0.0	0	0	0	FR2	5	R1030J
1793.079	1.6	2765488	WORD	n/a	wordpools/wordpool_EN.txt	THREAD	6	18	[0, 0, 0]	n/a	0	0	0	n/a	n/a	0.0	0	0	0	FR2	5	R1030J
1795.683	1.6	2768092	WORD	n/a	wordpools/wordpool_EN.txt	FENCE	7	18	[0, 0, 0]	n/a	0	0	0	n/a	n/a	0.0	0	0	0	FR2	5	R1030J
1798.188	1.6	2770597	WORD	n/a	wordpools/wordpool_EN.txt	WORM	8	18	[0, 0, 0]	n/a	0	0	0	n/a	n/a	0.0	0	0	0	FR2	5	R1030J
1800.775	1.6	2773184	WORD	n/a	wordpools/wordpool_EN.txt	CAR	9	18	[0, 0, 0]	n/a	0	0	0	n/a	n/a	0.0	0	0	0	FR2	5	R1030J
1803.23	1.6	2775639	WORD	n/a	wordpools/wordpool_EN.txt	SPRING	10	18	[0, 0, 0]	n/a	0	0	0	n/a	n/a	0.0	0	0	0	FR2	5	R1030J
1805.683	1.6	2778092	WORD	n/a	wordpools/wordpool_EN.txt	SLIME	11	18	[0, 0, 0]	n/a	0	0	0	n/a	n/a	0.0	0	0	0	FR2	5	R1030J
1808.188	1.6	2780597	WORD	n/a	wordpools/wordpool_EN.txt	SNAIL	12	18	[0, 0, 0]	n/a	0	0	0	n/a	n/a	0.0	0	0	0	FR2	5	R1030J
1809.808	0.0	2782217	DISTRACT_START	n/a	n/a	n/a	-999	18	[0, 0, 0]	n/a	0	0	0	n/a	n/a	0.0	0	0	0	FR2	5	R1030J
1809.808	0.016	2782217	START	n/a	n/a	n/a	-999	18	[-999, -999, -999]	n/a	0	0	0	n/a	n/a	0.0	0	0	0	FR2	5	R1030J
1809.824	2.904	2782233	PROB	2.873	n/a	n/a	-999	18	[3, 2, 6]	11	0	0	0	n/a	n/a	0.0	0	0	0	FR2	5	R1030J
1812.728	2.722	2785137	PROB	2.698	n/a	n/a	-999	18	[2, 5, 8]	15	0	0	0	n/a	n/a	0.0	0	0	0	FR2	5	R1030J
1815.45	4.041	2787858	PROB	4.008	n/a	n/a	-999	18	[3, 9, 5]	17	0	0	0	n/a	n/a	0.0	0	0	0	FR2	5	R1030J
1819.491	2.003	2791899	PROB	1.983	n/a	n/a	-999	18	[2, 2, 3]	7	0	0	0	n/a	n/a	0.0	0	0	0	FR2	5	R1030J
1821.494	3.238	2793902	PROB	3.211	n/a	n/a	-999	18	[7, 1, 5]	13	0	0	0	n/a	n/a	0.0	0	0	0	FR2	5	R1030J
1824.732	6.318	2797140	PROB	6.318	n/a	n/a	-999	18	[7, 6, 6]	19	0	0	0	n/a	n/a	0.0	0	0	0	FR2	5	R1030J
1831.05	0.01	2803458	STOP	n/a	n/a	n/a	-999	18	[-999, -999, -999]	n/a	0	0	0	n/a	n/a	0.0	0	0	0	FR2	5	R1030J
1831.06	1.203	2803468	DISTRACT_END	n/a	n/a	n/a	-999	18	[0, 0, 0]	n/a	0	0	0	n/a	n/a	0.0	0	0	0	FR2	5	R1030J
1832.263	2.318	2804671	REC_START	n/a	n/a	n/a	-999	18	[0, 0, 0]	n/a	0	0	0	n/a	n/a	0.0	0	0	0	FR2	5	R1030J
1834.581	1.114	2806989	REC_WORD	2.318	n/a	SNAIL	-999	18	[0, 0, 0]	n/a	0	0	0	n/a	n/a	0.0	0	0	0	FR2	5	R1030J
1835.695	15.059	2808103	REC_WORD	3.432	n/a	THREAD	-999	18	[0, 0, 0]	n/a	0	0	0	n/a	n/a	0.0	0	0	0	FR2	5	R1030J
1850.754	11.522	2823162	REC_WORD	18.491	n/a	RAT	-999	18	[0, 0, 0]	n/a	0	0	0	n/a	n/a	0.0	0	0	0	FR2	5	R1030J
1862.276	3.877	2834684	REC_END	n/a	n/a	n/a	-999	18	[0, 0, 0]	n/a	0	0	0	n/a	n/a	0.0	0	0	0	FR2	5	R1030J
1866.153	0.0	2838561	TRIAL	n/a	n/a	n/a	-999	19	[0, 0, 0]	n/a	0	1	0	n/a	n/a	0.0	0	0	0	FR2	5	R1030J
1866.153	10.0	2838561	COUNTDOWN_START	n/a	n/a	n/a	-999	19	[0, 0, 0]	n/a	0	1	0	n/a	n/a	0.0	0	0	0	FR2	5	R1030J
1876.581	0.005	2848989	COUNTDOWN_END	n/a	n/a	n/a	-999	19	[0, 0, 0]	n/a	0	1	0	n/a	n/a	0.0	0	0	0	FR2	5	R1030J
1876.586	1.6	2848994	ORIENT	n/a	n/a	n/a	-999	19	[0, 0, 0]	n/a	0	1	0	n/a	n/a	0.0	0	0	0	FR2	5	R1030J
1879.091	1.6	2851499	WORD	n/a	wordpools/wordpool_EN.txt	WOOD	1	19	[0, 0, 0]	n/a	0	1	0	n/a	n/a	0.0	0	0	0	FR2	5	R1030J
1881.495	1.6	2853903	WORD	n/a	wordpools/wordpool_EN.txt	BAT	2	19	[0, 0, 0]	n/a	0	1	0	n/a	n/a	0.0	0	0	0	FR2	5	R1030J
1883.707	4.6	2856115	STIM_ON	n/a	n/a	n/a	-999	19	[0, 0, 0]	n/a	1	1	4600	LQ2	LQ3	500.0	50	230	300	FR2	5	R1030J
1883.916	1.6	2856324	WORD	n/a	wordpools/wordpool_EN.txt	CLIFF	3	19	[0, 0, 0]	n/a	1	1	4600	LQ2	LQ3	500.0	50	230	300	FR2	5	R1030J
1886.336	1.6	2858744	WORD	n/a	wordpools/wordpool_EN.txt	FLOOR	4	19	[0, 0, 0]	n/a	1	1	4600	LQ2	LQ3	500.0	50	230	300	FR2	5	R1030J
1888.974	1.6	2861382	WORD	n/a	wordpools/wordpool_EN.txt	CAGE	5	19	[0, 0, 0]	n/a	0	1	0	n/a	n/a	0.0	0	0	0	FR2	5	R1030J
1891.528	1.6	2863936	WORD	n/a	wordpools/wordpool_EN.txt	VEST	6	19	[0, 0, 0]	n/a	0	1	0	n/a	n/a	0.0	0	0	0	FR2	5	R1030J
1893.936	4.6	2866344	STIM_ON	n/a	n/a	n/a	-999	19	[0, 0, 0]	n/a	1	1	4600	LQ2	LQ3	500.0	50	230	300	FR2	5	R1030J
1894.15	1.6	2866558	WORD	n/a	wordpools/wordpool_EN.txt	WEB	7	19	[0, 0, 0]	n/a	1	1	4600	LQ2	LQ3	500.0	50	230	300	FR2	5	R1030J
1896.753	1.6	2869161	WORD	n/a	wordpools/wordpool_EN.txt	STEAK	8	19	[0, 0, 0]	n/a	1	1	4600	LQ2	LQ3	500.0	50	230	300	FR2	5	R1030J
1899.241	1.6	2871649	WORD	n/a	wordpools/wordpool_EN.txt	GEESE	9	19	[0, 0, 0]	n/a	0	1	0	n/a	n/a	0.0	0	0	0	FR2	5	R1030J
1901.847	1.6	2874255	WORD	n/a	wordpools/wordpool_EN.txt	GOLD	10	19	[0, 0, 0]	n/a	0	1	0	n/a	n/a	0.0	0	0	0	FR2	5	R1030J
1904.159	4.6	2876567	STIM_ON	n/a	n/a	n/a	-999	19	[0, 0, 0]	n/a	1	1	4600	LQ2	LQ3	500.0	50	230	300	FR2	5	R1030J
1904.367	1.6	2876775	WORD	n/a	wordpools/wordpool_EN.txt	FOOT	11	19	[0, 0, 0]	n/a	1	1	4600	LQ2	LQ3	500.0	50	230	300	FR2	5	R1030J
1906.938	1.6	2879346	WORD	n/a	wordpools/wordpool_EN.txt	FLUTE	12	19	[0, 0, 0]	n/a	1	1	4600	LQ2	LQ3	500.0	50	230	300	FR2	5	R1030J
1908.556	0.001	2880964	DISTRACT_START	n/a	n/a	n/a	-999	19	[0, 0, 0]	n/a	1	1	4600	LQ2	LQ3	500.0	50	230	300	FR2	5	R1030J
1908.557	0.016	2880965	START	n/a	n/a	n/a	-999	19	[-999, -999, -999]	n/a	0	1	0	n/a	n/a	0.0	0	0	0	FR2	5	R1030J
1908.573	2.705	2880981	PROB	2.677	n/a	n/a	-999	19	[4, 1, 1]	6	0	1	0	n/a	n/a	0.0	0	0	0	FR2	5	R1030J
1911.278	5.308	2883686	PROB	5.283	n/a	n/a	-999	19	[7, 6, 2]	15	0	1	0	n/a	n/a	0.0	0	0	0	FR2	5	R1030J
1916.586	2.622	2888994	PROB	2.591	n/a	n/a	-999	19	[8, 5, 5]	18	0	1	0	n/a	n/a	0.0	0	0	0	FR2	5	R1030J
1919.208	2.688	2891615	PROB	2.666	n/a	n/a	-999	19	[4, 1, 7]	12	0	1	0	n/a	n/a	0.0	0	0	0	FR2	5	R1030J
1921.896	2.972	2894303	PROB	2.938	n/a	n/a	-999	19	[3, 9, 7]	19	0	1	0	n/a	n/a	0.0	0	0	0	FR2	5	R1030J
1924.868	1.885	2897275	PROB	1.861	n/a	n/a	-999	19	[4, 1, 1]	6	0	1	0	n/a	n/a	0.0	0	0	0	FR2	5	R1030J
1926.753	3.4	2899160	PROB	3.4	n/a	n/a	-999	19	[9, 5, 6]	20	0	1	0	n/a	n/a	0.0	0	0	0	FR2	5	R1030J
1930.153	0.007	2902560	STOP	n/a	n/a	n/a	-999	19	[-999, -999, -999]	n/a	0	1	0	n/a	n/a	0.0	0	0	0	FR2	5	R1030J
1930.16	1.153	2902567	DISTRACT_END	n/a	n/a	n/a	-999	19	[0, 0, 0]	n/a	0	1	0	n/a	n/a	0.0	0	0	0	FR2	5	R1030J
1931.313	5.967	2903720	REC_START	n/a	n/a	n/a	-999	19	[0, 0, 0]	n/a	0	1	0	n/a	n/a	0.0	0	0	0	FR2	5	R1030J
1937.28	0.652	2909687	REC_WORD	5.967	n/a	RHINO	-999	19	[0, 0, 0]	n/a	0	1	0	n/a	n/a	0.0	0	0	0	FR2	5	R1030J
1937.932	23.394	2910339	REC_WORD	6.619	n/a	SLEEVE	-999	19	[0, 0, 0]	n/a	0	1	0	n/a	n/a	0.0	0	0	0	FR2	5	R1030J
1961.326	2.173	2933733	REC_END	n/a	n/a	n/a	-999	19	[0, 0, 0]	n/a	0	1	0	n/a	n/a	0.0	0	0	0	FR2	5	R1030J
1963.499	0.0	2935906	TRIAL	n/a	n/a	n/a	-999	20	[0, 0, 0]	n/a	0	0	0	n/a	n/a	0.0	0	0	0	FR2	5	R1030J
1963.499	10.0	2935906	COUNTDOWN_START	n/a	n/a	n/a	-999	20	[0, 0, 0]	n/a	0	0	0	n/a	n/a	0.0	0	0	0	FR2	5	R1030J
1973.927	0.007	2946334	COUNTDOWN_END	n/a	n/a	n/a	-999	20	[0, 0, 0]	n/a	0	0	0	n/a	n/a	0.0	0	0	0	FR2	5	R1030J
1973.934	1.6	2946341	ORIENT	n/a	n/a	n/a	-999	20	[0, 0, 0]	n/a	0	0	0	n/a	n/a	0.0	0	0	0	FR2	5	R1030J
1976.421	1.6	2948828	WORD	n/a	wordpools/wordpool_EN.txt	STOOL	1	20	[0, 0, 0]	n/a	0	0	0	n/a	n/a	0.0	0	0	0	FR2	5	R1030J
1978.925	1.6	2951332	WORD	n/a	wordpools/wordpool_EN.txt	MULE	2	20	[0, 0, 0]	n/a	0	0	0	n/a	n/a	0.0	0	0	0	FR2	5	R1030J
1981.38	1.6	2953787	WORD	n/a	wordpools/wordpool_EN.txt	FILM	3	20	[0, 0, 0]	n/a	0	0	0	n/a	n/a	0.0	0	0	0	FR2	5	R1030J
1983.783	1.6	2956190	WORD	n/a	wordpools/wordpool_EN.txt	HORN	4	20	[0, 0, 0]	n/a	0	0	0	n/a	n/a	0.0	0	0	0	FR2	5	R1030J
1986.371	1.6	2958778	WORD	n/a	wordpools/wordpool_EN.txt	POOL	5	20	[0, 0, 0]	n/a	0	0	0	n/a	n/a	0.0	0	0	0	FR2	5	R1030J
1988.926	1.6	2961333	WORD	n/a	wordpools/wordpool_EN.txt	DEER	6	20	[0, 0, 0]	n/a	0	0	0	n/a	n/a	0.0	0	0	0	FR2	5	R1030J
1991.364	1.6	2963771	WORD	n/a	wordpools/wordpool_EN.txt	SAIL	7	20	[0, 0, 0]	n/a	0	0	0	n/a	n/a	0.0	0	0	0	FR2	5	R1030J
1993.8	1.6	2966207	WORD	n/a	wordpools/wordpool_EN.txt	CLAY	8	20	[0, 0, 0]	n/a	0	0	0	n/a	n/a	0.0	0	0	0	FR2	5	R1030J
1996.405	1.6	2968812	WORD	n/a	wordpools/wordpool_EN.txt	KEY	9	20	[0, 0, 0]	n/a	0	0	0	n/a	n/a	0.0	0	0	0	FR2	5	R1030J
1998.793	1.6	2971200	WORD	n/a	wordpools/wordpool_EN.txt	PEACH	10	20	[0, 0, 0]	n/a	0	0	0	n/a	n/a	0.0	0	0	0	FR2	5	R1030J
2001.213	1.6	2973620	WORD	n/a	wordpools/wordpool_EN.txt	POLE	11	20	[0, 0, 0]	n/a	0	0	0	n/a	n/a	0.0	0	0	0	FR2	5	R1030J
2003.666	1.6	2976073	WORD	n/a	wordpools/wordpool_EN.txt	WEED	12	20	[0, 0, 0]	n/a	0	0	0	n/a	n/a	0.0	0	0	0	FR2	5	R1030J
2005.287	0.0	2977694	DISTRACT_START	n/a	n/a	n/a	-999	20	[0, 0, 0]	n/a	0	0	0	n/a	n/a	0.0	0	0	0	FR2	5	R1030J
2005.287	0.016	2977694	START	n/a	n/a	n/a	-999	20	[-999, -999, -999]	n/a	0	0	0	n/a	n/a	0.0	0	0	0	FR2	5	R1030J
2005.303	5.009	2977710	PROB	4.97	n/a	n/a	-999	20	[5, 7, 1]	13	0	0	0	n/a	n/a	0.0	0	0	0	FR2	5	R1030J
2010.312	2.554	2982719	PROB	2.529	n/a	n/a	-999	20	[9, 3, 4]	16	0	0	0	n/a	n/a	0.0	0	0	0	FR2	5	R1030J
2012.866	2.704	2985273	PROB	2.678	n/a	n/a	-999	20	[3, 2, 8]	13	0	0	0	n/a	n/a	0.0	0	0	0	FR2	5	R1030J
2015.57	2.988	2987977	PROB	2.95	n/a	n/a	-999	20	[5, 3, 7]	15	0	0	0	n/a	n/a	0.0	0	0	0	FR2	5	R1030J
2018.558	2.455	2990965	PROB	2.419	n/a	n/a	-999	20	[7, 1, 7]	15	0	0	0	n/a	n/a	0.0	0	0	0	FR2	5	R1030J
2021.013	2.037	2993420	PROB	2.004	n/a	n/a	-999	20	[4, 1, 4]	9	0	0	0	n/a	n/a	0.0	0	0	0	FR2	5	R1030J
2023.05	3.255	2995457	PROB	3.255	n/a	n/a	-999	20	[4, 6, 5]	15	0	0	0	n/a	n/a	0.0	0	0	0	FR2	5	R1030J
2026.305	0.017	2998711	STOP	n/a	n/a	n/a	-999	20	[-999, -999, -999]	n/a	0	0	0	n/a	n/a	0.0	0	0	0	FR2	5	R1030J
2026.322	1.102	2998728	DISTRACT_END	n/a	n/a	n/a	-999	20	[0, 0, 0]	n/a	0	0	0	n/a	n/a	0.0	0	0	0	FR2	5	R1030J
2027.424	3.754	2999830	REC_START	n/a	n/a	n/a	-999	20	[0, 0, 0]	n/a	0	0	0	n/a	n/a	0.0	0	0	0	FR2	5	R1030J
2031.178	0.563	3003584	REC_WORD	3.754	n/a	POLE	-999	20	[0, 0, 0]	n/a	0	0	0	n/a	n/a	0.0	0	0	0	FR2	5	R1030J
2031.741	11.038	3004147	REC_WORD	4.317	n/a	SWORD	-999	20	[0, 0, 0]	n/a	0	0	0	n/a	n/a	0.0	0	0	0	FR2	5	R1030J
2042.779	7.851	3015185	REC_WORD	15.355	n/a	DOG	-999	20	[0, 0, 0]	n/a	0	0	0	n/a	n/a	0.0	0	0	0	FR2	5	R1030J
2050.63	6.815	3023036	REC_WORD	23.206	n/a	BADGE	-999	20	[0, 0, 0]	n/a	0	0	0	n/a	n/a	0.0	0	0	0	FR2	5	R1030J
2057.445	2.918	3029851	REC_END	n/a	n/a	n/a	-999	20	[0, 0, 0]	n/a	0	0	0	n/a	n/a	0.0	0	0	0	FR2	5	R1030J
2060.363	10.0	3032769	COUNTDOWN_START	n/a	n/a	n/a	-999	21	[0, 0, 0]	n/a	0	0	0	n/a	n/a	0.0	0	0	0	FR2	5	R1030J
2060.363	10.428	3032769	TRIAL	n/a	n/a	n/a	-999	21	[0, 0, 0]	n/a	0	0	0	n/a	n/a	0.0	0	0	0	FR2	5	R1030J
2070.791	0.006	3043197	COUNTDOWN_END	n/a	n/a	n/a	-999	21	[0, 0, 0]	n/a	0	0	0	n/a	n/a	0.0	0	0	0	FR2	5	R1030J
2070.797	1.6	3043203	ORIENT	n/a	n/a	n/a	-999	21	[0, 0, 0]	n/a	0	0	0	n/a	n/a	0.0	0	0	0	FR2	5	R1030J
2073.368	1.6	3045774	WORD	n/a	wordpools/wordpool_EN.txt	DOLL	1	21	[0, 0, 0]	n/a	0	0	0	n/a	n/a	0.0	0	0	0	FR2	5	R1030J
2075.889	1.6	3048295	WORD	n/a	wordpools/wordpool_EN.txt	BAG	2	21	[0, 0, 0]	n/a	0	0	0	n/a	n/a	0.0	0	0	0	FR2	5	R1030J
2078.376	1.6	3050782	WORD	n/a	wordpools/wordpool_EN.txt	LAWN	3	21	[0, 0, 0]	n/a	0	0	0	n/a	n/a	0.0	0	0	0	FR2	5	R1030J
2080.814	1.6	3053220	WORD	n/a	wordpools/wordpool_EN.txt	CHIEF	4	21	[0, 0, 0]	n/a	0	0	0	n/a	n/a	0.0	0	0	0	FR2	5	R1030J
2083.385	1.6	3055791	WORD	n/a	wordpools/wordpool_EN.txt	HOSE	5	21	[0, 0, 0]	n/a	0	0	0	n/a	n/a	0.0	0	0	0	FR2	5	R1030J
2085.856	1.6	3058262	WORD	n/a	wordpools/wordpool_EN.txt	SHRIMP	6	21	[0, 0, 0]	n/a	0	0	0	n/a	n/a	0.0	0	0	0	FR2	5	R1030J
2088.426	1.6	3060832	WORD	n/a	wordpools/wordpool_EN.txt	CORD	7	21	[0, 0, 0]	n/a	0	0	0	n/a	n/a	0.0	0	0	0	FR2	5	R1030J
2090.881	1.6	3063287	WORD	n/a	wordpools/wordpool_EN.txt	PIT	8	21	[0, 0, 0]	n/a	0	0	0	n/a	n/a	0.0	0	0	0	FR2	5	R1030J
2093.418	1.6	3065824	WORD	n/a	wordpools/wordpool_EN.txt	SKI	9	21	[0, 0, 0]	n/a	0	0	0	n/a	n/a	0.0	0	0	0	FR2	5	R1030J
2095.839	1.6	3068245	WORD	n/a	wordpools/wordpool_EN.txt	FOX	10	21	[0, 0, 0]	n/a	0	0	0	n/a	n/a	0.0	0	0	0	FR2	5	R1030J
2098.226	1.6	3070632	WORD	n/a	wordpools/wordpool_EN.txt	TIE	11	21	[0, 0, 0]	n/a	0	0	0	n/a	n/a	0.0	0	0	0	FR2	5	R1030J
2100.646	1.6	3073052	WORD	n/a	wordpools/wordpool_EN.txt	EEL	12	21	[0, 0, 0]	n/a	0	0	0	n/a	n/a	0.0	0	0	0	FR2	5	R1030J
2102.25	0.001	3074656	DISTRACT_START	n/a	n/a	n/a	-999	21	[0, 0, 0]	n/a	0	0	0	n/a	n/a	0.0	0	0	0	FR2	5	R1030J
2102.251	0.015	3074657	START	n/a	n/a	n/a	-999	21	[-999, -999, -999]	n/a	0	0	0	n/a	n/a	0.0	0	0	0	FR2	5	R1030J
2102.266	4.541	3074672	PROB	4.509	n/a	n/a	-999	21	[2, 1, 9]	12	0	0	0	n/a	n/a	0.0	0	0	0	FR2	5	R1030J
2106.807	2.354	3079213	PROB	2.33	n/a	n/a	-999	21	[2, 8, 8]	18	0	0	0	n/a	n/a	0.0	0	0	0	FR2	5	R1030J
2109.161	3.172	3081567	PROB	3.143	n/a	n/a	-999	21	[2, 9, 8]	19	0	0	0	n/a	n/a	0.0	0	0	0	FR2	5	R1030J
2112.333	3.255	3084739	PROB	3.218	n/a	n/a	-999	21	[2, 4, 2]	8	0	0	0	n/a	n/a	0.0	0	0	0	FR2	5	R1030J
2115.588	4.006	3087994	PROB	3.971	n/a	n/a	-999	21	[9, 8, 8]	25	0	0	0	n/a	n/a	0.0	0	0	0	FR2	5	R1030J
2119.594	2.572	3092000	PROB	2.542	n/a	n/a	-999	21	[2, 4, 5]	11	0	0	0	n/a	n/a	0.0	0	0	0	FR2	5	R1030J
2122.166	2.882	3094572	PROB	2.882	n/a	n/a	-999	21	[9, 9, 7]	25	0	0	0	n/a	n/a	0.0	0	0	0	FR2	5	R1030J
2125.048	0.007	3097454	STOP	n/a	n/a	n/a	-999	21	[-999, -999, -999]	n/a	0	0	0	n/a	n/a	0.0	0	0	0	FR2	5	R1030J
2125.055	1.186	3097461	DISTRACT_END	n/a	n/a	n/a	-999	21	[0, 0, 0]	n/a	0	0	0	n/a	n/a	0.0	0	0	0	FR2	5	R1030J
2126.241	2.152	3098647	REC_START	n/a	n/a	n/a	-999	21	[0, 0, 0]	n/a	0	0	0	n/a	n/a	0.0	0	0	0	FR2	5	R1030J
2128.393	13.593	3100799	REC_WORD	2.152	n/a	BOX	-999	21	[0, 0, 0]	n/a	0	0	0	n/a	n/a	0.0	0	0	0	FR2	5	R1030J
2141.986	14.268	3114391	REC_WORD	15.745	n/a	INK	-999	21	[0, 0, 0]	n/a	0	0	0	n/a	n/a	0.0	0	0	0	FR2	5	R1030J
2156.254	5.613	3128659	REC_END	n/a	n/a	n/a	-999	21	[0, 0, 0]	n/a	0	0	0	n/a	n/a	0.0	0	0	0	FR2	5	R1030J
2161.867	0.0	3134272	TRIAL	n/a	n/a	n/a	-999	22	[0, 0, 0]	n/a	0	1	0	n/a	n/a	0.0	0	0	0	FR2	5	R1030J
2161.867	10.0	3134272	COUNTDOWN_START	n/a	n/a	n/a	-999	22	[0, 0, 0]	n/a	0	1	0	n/a	n/a	0.0	0	0	0	FR2	5	R1030J
2172.295	0.006	3144700	COUNTDOWN_END	n/a	n/a	n/a	-999	22	[0, 0, 0]	n/a	0	1	0	n/a	n/a	0.0	0	0	0	FR2	5	R1030J
2172.301	1.6	3144706	ORIENT	n/a	n/a	n/a	-999	22	[0, 0, 0]	n/a	0	1	0	n/a	n/a	0.0	0	0	0	FR2	5	R1030J
2174.704	1.6	3147109	WORD	n/a	wordpools/wordpool_EN.txt	CORN	1	22	[0, 0, 0]	n/a	0	1	0	n/a	n/a	0.0	0	0	0	FR2	5	R1030J
2177.343	1.6	3149748	WORD	n/a	wordpools/wordpool_EN.txt	MUD	2	22	[0, 0, 0]	n/a	0	1	0	n/a	n/a	0.0	0	0	0	FR2	5	R1030J
2179.595	4.6	3152000	STIM_ON	n/a	n/a	n/a	-999	22	[0, 0, 0]	n/a	1	1	4600	LQ2	LQ3	500.0	50	230	300	FR2	5	R1030J
2179.814	1.6	3152219	WORD	n/a	wordpools/wordpool_EN.txt	GUARD	3	22	[0, 0, 0]	n/a	1	1	4600	LQ2	LQ3	500.0	50	230	300	FR2	5	R1030J
2182.234	1.6	3154639	WORD	n/a	wordpools/wordpool_EN.txt	SWORD	4	22	[0, 0, 0]	n/a	1	1	4600	LQ2	LQ3	500.0	50	230	300	FR2	5	R1030J
2184.654	1.6	3157059	WORD	n/a	wordpools/wordpool_EN.txt	STREET	5	22	[0, 0, 0]	n/a	0	1	0	n/a	n/a	0.0	0	0	0	FR2	5	R1030J
2187.193	1.6	3159598	WORD	n/a	wordpools/wordpool_EN.txt	RAIN	6	22	[0, 0, 0]	n/a	0	1	0	n/a	n/a	0.0	0	0	0	FR2	5	R1030J
2189.414	4.6	3161819	STIM_ON	n/a	n/a	n/a	-999	22	[0, 0, 0]	n/a	1	1	4600	LQ2	LQ3	500.0	50	230	300	FR2	5	R1030J
2189.629	1.6	3162034	WORD	n/a	wordpools/wordpool_EN.txt	STRAW	7	22	[0, 0, 0]	n/a	1	1	4600	LQ2	LQ3	500.0	50	230	300	FR2	5	R1030J
2192.218	1.6	3164623	WORD	n/a	wordpools/wordpool_EN.txt	MILK	8	22	[0, 0, 0]	n/a	1	1	4600	LQ2	LQ3	500.0	50	230	300	FR2	5	R1030J
2194.654	1.6	3167059	WORD	n/a	wordpools/wordpool_EN.txt	CHIN	9	22	[0, 0, 0]	n/a	0	1	0	n/a	n/a	0.0	0	0	0	FR2	5	R1030J
2197.059	1.6	3169464	WORD	n/a	wordpools/wordpool_EN.txt	PIE	10	22	[0, 0, 0]	n/a	0	1	0	n/a	n/a	0.0	0	0	0	FR2	5	R1030J
2199.259	4.6	3171664	STIM_ON	n/a	n/a	n/a	-999	22	[0, 0, 0]	n/a	1	1	4600	LQ2	LQ3	500.0	50	230	300	FR2	5	R1030J
2199.463	1.6	3171868	WORD	n/a	wordpools/wordpool_EN.txt	FROG	11	22	[0, 0, 0]	n/a	1	1	4600	LQ2	LQ3	500.0	50	230	300	FR2	5	R1030J
2202.084	1.6	3174489	WORD	n/a	wordpools/wordpool_EN.txt	ROOM	12	22	[0, 0, 0]	n/a	1	1	4600	LQ2	LQ3	500.0	50	230	300	FR2	5	R1030J
2203.703	0.0	3176108	DISTRACT_START	n/a	n/a	n/a	-999	22	[0, 0, 0]	n/a	1	1	4600	LQ2	LQ3	500.0	50	230	300	FR2	5	R1030J
2203.703	0.016	3176108	START	n/a	n/a	n/a	-999	22	[-999, -999, -999]	n/a	0	1	0	n/a	n/a	0.0	0	0	0	FR2	5	R1030J
2203.719	3.173	3176124	PROB	3.144	n/a	n/a	-999	22	[5, 9, 8]	22	0	1	0	n/a	n/a	0.0	0	0	0	FR2	5	R1030J
2206.892	5.409	3179297	PROB	5.379	n/a	n/a	-999	22	[7, 6, 9]	22	0	1	0	n/a	n/a	0.0	0	0	0	FR2	5	R1030J
2212.301	2.738	3184706	PROB	2.714	n/a	n/a	-999	22	[2, 5, 1]	8	0	1	0	n/a	n/a	0.0	0	0	0	FR2	5	R1030J
2215.039	2.537	3187444	PROB	2.511	n/a	n/a	-999	22	[8, 8, 5]	21	0	1	0	n/a	n/a	0.0	0	0	0	FR2	5	R1030J
2217.576	2.839	3189981	PROB	2.807	n/a	n/a	-999	22	[7, 6, 3]	16	0	1	0	n/a	n/a	0.0	0	0	0	FR2	5	R1030J
2220.415	3.56	3192820	PROB	3.56	n/a	n/a	-999	22	[2, 7, 6]	15	0	1	0	n/a	n/a	0.0	0	0	0	FR2	5	R1030J
2223.975	0.013	3196380	STOP	n/a	n/a	n/a	-999	22	[-999, -999, -999]	n/a	0	1	0	n/a	n/a	0.0	0	0	0	FR2	5	R1030J
2223.988	1.152	3196393	DISTRACT_END	n/a	n/a	n/a	-999	22	[0, 0, 0]	n/a	0	1	0	n/a	n/a	0.0	0	0	0	FR2	5	R1030J
2225.14	4.168	3197545	REC_START	n/a	n/a	n/a	-999	22	[0, 0, 0]	n/a	0	1	0	n/a	n/a	0.0	0	0	0	FR2	5	R1030J
2229.308	6.215	3201713	REC_WORD	4.168	n/a	ROOM	-999	22	[0, 0, 0]	n/a	0	1	0	n/a	n/a	0.0	0	0	0	FR2	5	R1030J
2235.523	0.931	3207927	REC_WORD	10.383	n/a	STONE	-999	22	[0, 0, 0]	n/a	0	1	0	n/a	n/a	0.0	0	0	0	FR2	5	R1030J
2236.454	18.707	3208858	REC_WORD	11.314	n/a	SLEEVE	-999	22	[0, 0, 0]	n/a	0	1	0	n/a	n/a	0.0	0	0	0	FR2	5	R1030J
2255.161	2.984	3227565	REC_END	n/a	n/a	n/a	-999	22	[0, 0, 0]	n/a	0	1	0	n/a	n/a	0.0	0	0	0	FR2	5	R1030J
2258.145	10.0	3230549	COUNTDOWN_START	n/a	n/a	n/a	-999	23	[0, 0, 0]	n/a	0	1	0	n/a	n/a	0.0	0	0	0	FR2	5	R1030J
2258.146	10.427	3230550	TRIAL	n/a	n/a	n/a	-999	23	[0, 0, 0]	n/a	0	1	0	n/a	n/a	0.0	0	0	0	FR2	5	R1030J
2268.573	0.005	3240977	COUNTDOWN_END	n/a	n/a	n/a	-999	23	[0, 0, 0]	n/a	0	1	0	n/a	n/a	0.0	0	0	0	FR2	5	R1030J
2268.578	1.6	3240982	ORIENT	n/a	n/a	n/a	-999	23	[0, 0, 0]	n/a	0	1	0	n/a	n/a	0.0	0	0	0	FR2	5	R1030J
2270.815	4.6	3243219	STIM_ON	n/a	n/a	n/a	-999	23	[0, 0, 0]	n/a	1	1	4600	LQ2	LQ3	500.0	50	230	300	FR2	5	R1030J
2271.034	1.6	3243438	WORD	n/a	wordpools/wordpool_EN.txt	HEN	1	23	[0, 0, 0]	n/a	1	1	4600	LQ2	LQ3	500.0	50	230	300	FR2	5	R1030J
2273.454	1.6	3245858	WORD	n/a	wordpools/wordpool_EN.txt	BANK	2	23	[0, 0, 0]	n/a	1	1	4600	LQ2	LQ3	500.0	50	230	300	FR2	5	R1030J
2275.926	1.6	3248330	WORD	n/a	wordpools/wordpool_EN.txt	SHARK	3	23	[0, 0, 0]	n/a	0	1	0	n/a	n/a	0.0	0	0	0	FR2	5	R1030J
2278.446	1.6	3250850	WORD	n/a	wordpools/wordpool_EN.txt	CALF	4	23	[0, 0, 0]	n/a	0	1	0	n/a	n/a	0.0	0	0	0	FR2	5	R1030J
2280.838	4.6	3253242	STIM_ON	n/a	n/a	n/a	-999	23	[0, 0, 0]	n/a	1	1	4600	LQ2	LQ3	500.0	50	230	300	FR2	5	R1030J
2281.051	1.6	3253455	WORD	n/a	wordpools/wordpool_EN.txt	MOTH	5	23	[0, 0, 0]	n/a	1	1	4600	LQ2	LQ3	500.0	50	230	300	FR2	5	R1030J
2283.438	1.6	3255842	WORD	n/a	wordpools/wordpool_EN.txt	FUR	6	23	[0, 0, 0]	n/a	1	1	4600	LQ2	LQ3	500.0	50	230	300	FR2	5	R1030J
2285.909	1.6	3258313	WORD	n/a	wordpools/wordpool_EN.txt	BALL	7	23	[0, 0, 0]	n/a	0	1	0	n/a	n/a	0.0	0	0	0	FR2	5	R1030J
2288.296	1.6	3260700	WORD	n/a	wordpools/wordpool_EN.txt	NEST	8	23	[0, 0, 0]	n/a	0	1	0	n/a	n/a	0.0	0	0	0	FR2	5	R1030J
2290.71	4.6	3263114	STIM_ON	n/a	n/a	n/a	-999	23	[0, 0, 0]	n/a	1	1	4600	LQ2	LQ3	500.0	50	230	300	FR2	5	R1030J
2290.918	1.6	3263322	WORD	n/a	wordpools/wordpool_EN.txt	WOLF	9	23	[0, 0, 0]	n/a	1	1	4600	LQ2	LQ3	500.0	50	230	300	FR2	5	R1030J
2293.504	1.6	3265908	WORD	n/a	wordpools/wordpool_EN.txt	MOUSE	10	23	[0, 0, 0]	n/a	1	1	4600	LQ2	LQ3	500.0	50	230	300	FR2	5	R1030J
2296.009	1.6	3268413	WORD	n/a	wordpools/wordpool_EN.txt	SEED	11	23	[0, 0, 0]	n/a	0	1	0	n/a	n/a	0.0	0	0	0	FR2	5	R1030J
2298.497	1.6	3270901	WORD	n/a	wordpools/wordpool_EN.txt	BOWL	12	23	[0, 0, 0]	n/a	0	1	0	n/a	n/a	0.0	0	0	0	FR2	5	R1030J
2300.116	0.001	3272520	DISTRACT_START	n/a	n/a	n/a	-999	23	[0, 0, 0]	n/a	0	1	0	n/a	n/a	0.0	0	0	0	FR2	5	R1030J
2300.117	0.016	3272521	START	n/a	n/a	n/a	-999	23	[-999, -999, -999]	n/a	0	1	0	n/a	n/a	0.0	0	0	0	FR2	5	R1030J
2300.133	3.138	3272537	PROB	3.109	n/a	n/a	-999	23	[2, 9, 3]	14	0	1	0	n/a	n/a	0.0	0	0	0	FR2	5	R1030J
2303.271	2.855	3275675	PROB	2.828	n/a	n/a	-999	23	[2, 3, 5]	10	0	1	0	n/a	n/a	0.0	0	0	0	FR2	5	R1030J
2306.126	2.537	3278530	PROB	2.507	n/a	n/a	-999	23	[7, 3, 5]	15	0	1	0	n/a	n/a	0.0	0	0	0	FR2	5	R1030J
2308.663	2.938	3281067	PROB	2.906	n/a	n/a	-999	23	[8, 3, 9]	20	0	1	0	n/a	n/a	0.0	0	0	0	FR2	5	R1030J
2311.601	3.574	3284005	PROB	3.537	n/a	n/a	-999	23	[7, 9, 5]	21	0	1	0	n/a	n/a	0.0	0	0	0	FR2	5	R1030J
2315.175	3.272	3287579	PROB	3.243	n/a	n/a	-999	23	[5, 7, 8]	20	0	1	0	n/a	n/a	0.0	0	0	0	FR2	5	R1030J
2318.447	2.571	3290851	PROB	2.571	n/a	n/a	-999	23	[6, 8, 1]	15	0	1	0	n/a	n/a	0.0	0	0	0	FR2	5	R1030J
2321.018	0.016	3293422	STOP	n/a	n/a	n/a	-999	23	[-999, -999, -999]	n/a	0	1	0	n/a	n/a	0.0	0	0	0	FR2	5	R1030J
2321.034	1.119	3293438	DISTRACT_END	n/a	n/a	n/a	-999	23	[0, 0, 0]	n/a	0	1	0	n/a	n/a	0.0	0	0	0	FR2	5	R1030J
2322.153	2.278	3294557	REC_START	n/a	n/a	n/a	-999	23	[0, 0, 0]	n/a	0	1	0	n/a	n/a	0.0	0	0	0	FR2	5	R1030J
2324.431	11.374	3296835	REC_WORD	2.278	n/a	SNOW	-999	23	[0, 0, 0]	n/a	0	1	0	n/a	n/a	0.0	0	0	0	FR2	5	R1030J
2335.805	16.37	3308209	REC_WORD	13.652	n/a	DOLL	-999	23	[0, 0, 0]	n/a	0	1	0	n/a	n/a	0.0	0	0	0	FR2	5	R1030J
2352.175	1.965	3324578	REC_END	n/a	n/a	n/a	-999	23	[0, 0, 0]	n/a	0	1	0	n/a	n/a	0.0	0	0	0	FR2	5	R1030J
2354.14	10.0	3326543	COUNTDOWN_START	n/a	n/a	n/a	-999	24	[0, 0, 0]	n/a	0	0	0	n/a	n/a	0.0	0	0	0	FR2	5	R1030J
2354.141	10.427	3326544	TRIAL	n/a	n/a	n/a	-999	24	[0, 0, 0]	n/a	0	0	0	n/a	n/a	0.0	0	0	0	FR2	5	R1030J
2364.568	0.005	3336971	COUNTDOWN_END	n/a	n/a	n/a	-999	24	[0, 0, 0]	n/a	0	0	0	n/a	n/a	0.0	0	0	0	FR2	5	R1030J
2364.573	1.6	3336976	ORIENT	n/a	n/a	n/a	-999	24	[0, 0, 0]	n/a	0	0	0	n/a	n/a	0.0	0	0	0	FR2	5	R1030J
2366.945	1.6	3339348	WORD	n/a	wordpools/wordpool_EN.txt	GRASS	1	24	[0, 0, 0]	n/a	0	0	0	n/a	n/a	0.0	0	0	0	FR2	5	R1030J
2369.548	1.6	3341951	WORD	n/a	wordpools/wordpool_EN.txt	LAMB	2	24	[0, 0, 0]	n/a	0	0	0	n/a	n/a	0.0	0	0	0	FR2	5	R1030J
2371.92	1.6	3344323	WORD	n/a	wordpools/wordpool_EN.txt	JAR	3	24	[0, 0, 0]	n/a	0	0	0	n/a	n/a	0.0	0	0	0	FR2	5	R1030J
2374.391	1.6	3346794	WORD	n/a	wordpools/wordpool_EN.txt	BOARD	4	24	[0, 0, 0]	n/a	0	0	0	n/a	n/a	0.0	0	0	0	FR2	5	R1030J
2376.845	1.6	3349248	WORD	n/a	wordpools/wordpool_EN.txt	EAR	5	24	[0, 0, 0]	n/a	0	0	0	n/a	n/a	0.0	0	0	0	FR2	5	R1030J
2379.367	1.6	3351770	WORD	n/a	wordpools/wordpool_EN.txt	CONE	6	24	[0, 0, 0]	n/a	0	0	0	n/a	n/a	0.0	0	0	0	FR2	5	R1030J
2381.769	1.6	3354172	WORD	n/a	wordpools/wordpool_EN.txt	APE	7	24	[0, 0, 0]	n/a	0	0	0	n/a	n/a	0.0	0	0	0	FR2	5	R1030J
2384.141	1.6	3356544	WORD	n/a	wordpools/wordpool_EN.txt	TRASH	8	24	[0, 0, 0]	n/a	0	0	0	n/a	n/a	0.0	0	0	0	FR2	5	R1030J
2386.677	1.6	3359080	WORD	n/a	wordpools/wordpool_EN.txt	AXE	9	24	[0, 0, 0]	n/a	0	0	0	n/a	n/a	0.0	0	0	0	FR2	5	R1030J
2389.116	1.6	3361519	WORD	n/a	wordpools/wordpool_EN.txt	BED	10	24	[0, 0, 0]	n/a	0	0	0	n/a	n/a	0.0	0	0	0	FR2	5	R1030J
2391.519	1.6	3363922	WORD	n/a	wordpools/wordpool_EN.txt	HEART	11	24	[0, 0, 0]	n/a	0	0	0	n/a	n/a	0.0	0	0	0	FR2	5	R1030J
2394.074	1.6	3366477	WORD	n/a	wordpools/wordpool_EN.txt	BOOT	12	24	[0, 0, 0]	n/a	0	0	0	n/a	n/a	0.0	0	0	0	FR2	5	R1030J
2395.692	0.001	3368095	DISTRACT_START	n/a	n/a	n/a	-999	24	[0, 0, 0]	n/a	0	0	0	n/a	n/a	0.0	0	0	0	FR2	5	R1030J
2395.693	0.016	3368096	START	n/a	n/a	n/a	-999	24	[-999, -999, -999]	n/a	0	0	0	n/a	n/a	0.0	0	0	0	FR2	5	R1030J
2395.709	2.355	3368112	PROB	2.32	n/a	n/a	-999	24	[3, 3, 1]	7	0	0	0	n/a	n/a	0.0	0	0	0	FR2	5	R1030J
2398.064	2.72	3370467	PROB	2.692	n/a	n/a	-999	24	[6, 3, 4]	13	0	0	0	n/a	n/a	0.0	0	0	0	FR2	5	R1030J
2400.784	2.572	3373187	PROB	2.541	n/a	n/a	-999	24	[7, 5, 1]	13	0	0	0	n/a	n/a	0.0	0	0	0	FR2	5	R1030J
2403.356	2.454	3375759	PROB	2.424	n/a	n/a	-999	24	[8, 4, 6]	18	0	0	0	n/a	n/a	0.0	0	0	0	FR2	5	R1030J
2405.81	2.388	3378213	PROB	2.355	n/a	n/a	-999	24	[6, 3, 2]	11	0	0	0	n/a	n/a	0.0	0	0	0	FR2	5	R1030J
2408.198	3.956	3380601	PROB	3.927	n/a	n/a	-999	24	[6, 4, 7]	17	0	0	0	n/a	n/a	0.0	0	0	0	FR2	5	R1030J
2412.154	2.304	3384557	PROB	2.283	n/a	n/a	-999	24	[9, 3, 3]	15	0	0	0	n/a	n/a	0.0	0	0	0	FR2	5	R1030J
2414.458	2.923	3386861	PROB	2.923	n/a	n/a	-999	24	[3, 9, 7]	19	0	0	0	n/a	n/a	0.0	0	0	0	FR2	5	R1030J
2417.381	0.016	3389784	STOP	n/a	n/a	n/a	-999	24	[-999, -999, -999]	n/a	0	0	0	n/a	n/a	0.0	0	0	0	FR2	5	R1030J
2417.397	1.201	3389800	DISTRACT_END	n/a	n/a	n/a	-999	24	[0, 0, 0]	n/a	0	0	0	n/a	n/a	0.0	0	0	0	FR2	5	R1030J
2418.598	12.321	3391001	REC_START	n/a	n/a	n/a	-999	24	[0, 0, 0]	n/a	0	0	0	n/a	n/a	0.0	0	0	0	FR2	5	R1030J
2430.919	1.155	3403322	REC_WORD	12.321	n/a	TEA	-999	24	[0, 0, 0]	n/a	0	0	0	n/a	n/a	0.0	0	0	0	FR2	5	R1030J
2432.074	16.545	3404477	REC_WORD	13.476	n/a	BIRD	-999	24	[0, 0, 0]	n/a	0	0	0	n/a	n/a	0.0	0	0	0	FR2	5	R1030J
2448.619	2.284	3421021	REC_END	n/a	n/a	n/a	-999	24	[0, 0, 0]	n/a	0	0	0	n/a	n/a	0.0	0	0	0	FR2	5	R1030J
2450.903	10.0	3423305	COUNTDOWN_START	n/a	n/a	n/a	-999	25	[0, 0, 0]	n/a	0	1	0	n/a	n/a	0.0	0	0	0	FR2	5	R1030J
2450.904	10.427	3423306	TRIAL	n/a	n/a	n/a	-999	25	[0, 0, 0]	n/a	0	1	0	n/a	n/a	0.0	0	0	0	FR2	5	R1030J
2461.331	0.006	3433733	COUNTDOWN_END	n/a	n/a	n/a	-999	25	[0, 0, 0]	n/a	0	1	0	n/a	n/a	0.0	0	0	0	FR2	5	R1030J
2461.337	1.6	3433739	ORIENT	n/a	n/a	n/a	-999	25	[0, 0, 0]	n/a	0	1	0	n/a	n/a	0.0	0	0	0	FR2	5	R1030J
2463.791	1.6	3436193	WORD	n/a	wordpools/wordpool_EN.txt	LEAF	1	25	[0, 0, 0]	n/a	0	1	0	n/a	n/a	0.0	0	0	0	FR2	5	R1030J
2466.362	1.6	3438764	WORD	n/a	wordpools/wordpool_EN.txt	CHAIR	2	25	[0, 0, 0]	n/a	0	1	0	n/a	n/a	0.0	0	0	0	FR2	5	R1030J
2468.675	4.6	3441077	STIM_ON	n/a	n/a	n/a	-999	25	[0, 0, 0]	n/a	1	1	4600	LQ2	LQ3	500.0	50	230	300	FR2	5	R1030J
2468.883	1.6	3441285	WORD	n/a	wordpools/wordpool_EN.txt	ROAD	3	25	[0, 0, 0]	n/a	1	1	4600	LQ2	LQ3	500.0	50	230	300	FR2	5	R1030J
2471.304	1.6	3443706	WORD	n/a	wordpools/wordpool_EN.txt	CLOWN	4	25	[0, 0, 0]	n/a	1	1	4600	LQ2	LQ3	500.0	50	230	300	FR2	5	R1030J
2473.707	1.6	3446109	WORD	n/a	wordpools/wordpool_EN.txt	GLASS	5	25	[0, 0, 0]	n/a	0	1	0	n/a	n/a	0.0	0	0	0	FR2	5	R1030J
2476.095	1.6	3448497	WORD	n/a	wordpools/wordpool_EN.txt	STAIR	6	25	[0, 0, 0]	n/a	0	1	0	n/a	n/a	0.0	0	0	0	FR2	5	R1030J
2478.504	4.6	3450906	STIM_ON	n/a	n/a	n/a	-999	25	[0, 0, 0]	n/a	1	1	4600	LQ2	LQ3	500.0	50	230	300	FR2	5	R1030J
2478.715	1.6	3451117	WORD	n/a	wordpools/wordpool_EN.txt	STONE	7	25	[0, 0, 0]	n/a	1	1	4600	LQ2	LQ3	500.0	50	230	300	FR2	5	R1030J
2481.154	1.6	3453556	WORD	n/a	wordpools/wordpool_EN.txt	CAPE	8	25	[0, 0, 0]	n/a	1	1	4600	LQ2	LQ3	500.0	50	230	300	FR2	5	R1030J
2483.64	1.6	3456042	WORD	n/a	wordpools/wordpool_EN.txt	PLANT	9	25	[0, 0, 0]	n/a	0	1	0	n/a	n/a	0.0	0	0	0	FR2	5	R1030J
2486.096	1.6	3458498	WORD	n/a	wordpools/wordpool_EN.txt	FOAM	10	25	[0, 0, 0]	n/a	0	1	0	n/a	n/a	0.0	0	0	0	FR2	5	R1030J
2488.279	4.6	3460681	STIM_ON	n/a	n/a	n/a	-999	25	[0, 0, 0]	n/a	1	1	4600	LQ2	LQ3	500.0	50	230	300	FR2	5	R1030J
2488.499	1.6	3460901	WORD	n/a	wordpools/wordpool_EN.txt	HOOF	11	25	[0, 0, 0]	n/a	1	1	4600	LQ2	LQ3	500.0	50	230	300	FR2	5	R1030J
2490.954	1.6	3463356	WORD	n/a	wordpools/wordpool_EN.txt	BOMB	12	25	[0, 0, 0]	n/a	1	1	4600	LQ2	LQ3	500.0	50	230	300	FR2	5	R1030J
2492.572	0.001	3464974	DISTRACT_START	n/a	n/a	n/a	-999	25	[0, 0, 0]	n/a	1	1	4600	LQ2	LQ3	500.0	50	230	300	FR2	5	R1030J
2492.573	0.016	3464975	START	n/a	n/a	n/a	-999	25	[-999, -999, -999]	n/a	0	1	0	n/a	n/a	0.0	0	0	0	FR2	5	R1030J
2492.589	3.507	3464991	PROB	3.474	n/a	n/a	-999	25	[6, 5, 5]	16	0	1	0	n/a	n/a	0.0	0	0	0	FR2	5	R1030J
2496.096	2.07	3468498	PROB	2.039	n/a	n/a	-999	25	[2, 6, 6]	14	0	1	0	n/a	n/a	0.0	0	0	0	FR2	5	R1030J
2498.166	2.871	3470568	PROB	2.841	n/a	n/a	-999	25	[2, 4, 8]	14	0	1	0	n/a	n/a	0.0	0	0	0	FR2	5	R1030J
2501.037	2.687	3473439	PROB	2.665	n/a	n/a	-999	25	[6, 2, 9]	17	0	1	0	n/a	n/a	0.0	0	0	0	FR2	5	R1030J
2503.724	2.672	3476126	PROB	2.643	n/a	n/a	-999	25	[2, 4, 7]	13	0	1	0	n/a	n/a	0.0	0	0	0	FR2	5	R1030J
2506.396	2.805	3478798	PROB	2.779	n/a	n/a	-999	25	[5, 2, 6]	13	0	1	0	n/a	n/a	0.0	0	0	0	FR2	5	R1030J
2509.201	2.087	3481603	PROB	2.054	n/a	n/a	-999	25	[7, 7, 1]	15	0	1	0	n/a	n/a	0.0	0	0	0	FR2	5	R1030J
2511.288	2.559	3483690	PROB	2.559	n/a	n/a	-999	25	[2, 7, 9]	18	0	1	0	n/a	n/a	0.0	0	0	0	FR2	5	R1030J
2513.847	0.012	3486249	STOP	n/a	n/a	n/a	-999	25	[-999, -999, -999]	n/a	0	1	0	n/a	n/a	0.0	0	0	0	FR2	5	R1030J
2513.859	1.119	3486261	DISTRACT_END	n/a	n/a	n/a	-999	25	[0, 0, 0]	n/a	0	1	0	n/a	n/a	0.0	0	0	0	FR2	5	R1030J
2514.978	1.607	3487380	REC_START	n/a	n/a	n/a	-999	25	[0, 0, 0]	n/a	0	1	0	n/a	n/a	0.0	0	0	0	FR2	5	R1030J
2516.585	0.959	3488987	REC_WORD_VV	1.607	n/a	<>	-999	25	[0, 0, 0]	n/a	0	1	0	n/a	n/a	0.0	0	0	0	FR2	5	R1030J
2517.544	0.776	3489946	REC_WORD	2.566	n/a	GLASS	-999	25	[0, 0, 0]	n/a	0	1	0	n/a	n/a	0.0	0	0	0	FR2	5	R1030J
2518.32	0.953	3490722	REC_WORD	3.342	n/a	HOOF	-999	25	[0, 0, 0]	n/a	0	1	0	n/a	n/a	0.0	0	0	0	FR2	5	R1030J
2519.273	1.452	3491675	REC_WORD	4.295	n/a	FLEA	-999	25	[0, 0, 0]	n/a	0	1	0	n/a	n/a	0.0	0	0	0	FR2	5	R1030J
2520.725	12.489	3493127	REC_WORD	5.747	n/a	STONE	-999	25	[0, 0, 0]	n/a	0	1	0	n/a	n/a	0.0	0	0	0	FR2	5	R1030J
2533.214	0.424	3505616	REC_WORD	18.236	n/a	WALL	-999	25	[0, 0, 0]	n/a	0	1	0	n/a	n/a	0.0	0	0	0	FR2	5	R1030J
2533.638	8.11	3506040	REC_WORD	18.66	n/a	SHIELD	-999	25	[0, 0, 0]	n/a	0	1	0	n/a	n/a	0.0	0	0	0	FR2	5	R1030J
2541.748	3.242	3514150	REC_WORD	26.77	n/a	HOUSE	-999	25	[0, 0, 0]	n/a	0	1	0	n/a	n/a	0.0	0	0	0	FR2	5	R1030J
2544.99	21.007	3517392	REC_END	n/a	n/a	n/a	-999	25	[0, 0, 0]	n/a	0	1	0	n/a	n/a	0.0	0	0	0	FR2	5	R1030J
2565.997	0.0	3538398	SESS_END	n/a	n/a	n/a	-999	25	[0, 0, 0]	n/a	0	1	0	n/a	n/a	0.0	0	0	0	FR2	5	R1030J
