onset	duration	sample	trial_type	response_time	stim_file	item_name	serialpos	list	test	answer	stimulation	stim_list	stim_duration	anode_label	cathode_label	amplitude	pulse_freq	n_pulses	pulse_width	experiment	session	subject
0.0	21.966	574613	SESS_START	n/a	n/a	n/a	-999	-999	[0, 0, 0]	n/a	0	0	0	n/a	n/a	0.0	0	0	0	FR2	1	R1001P
21.966	10.0	585596	COUNTDOWN_START	n/a	n/a	n/a	-999	-999	[0, 0, 0]	n/a	0	0	0	n/a	n/a	0.0	0	0	0	FR2	1	R1001P
32.394	3.774	590809	COUNTDOWN_END	n/a	n/a	n/a	-999	-999	[0, 0, 0]	n/a	0	0	0	n/a	n/a	0.0	0	0	0	FR2	1	R1001P
36.168	1.6	592696	PRACTICE_WORD	n/a	n/a	WATCH	1	-1	[0, 0, 0]	n/a	0	0	0	n/a	n/a	0.0	0	0	0	FR2	1	R1001P
38.635	1.6	593930	PRACTICE_WORD	n/a	n/a	COTTON	2	-1	[0, 0, 0]	n/a	0	0	0	n/a	n/a	0.0	0	0	0	FR2	1	R1001P
41.103	1.6	595164	PRACTICE_WORD	n/a	n/a	CHEST	3	-1	[0, 0, 0]	n/a	0	0	0	n/a	n/a	0.0	0	0	0	FR2	1	R1001P
43.553	1.6	596389	PRACTICE_WORD	n/a	n/a	RHINO	4	-1	[0, 0, 0]	n/a	0	0	0	n/a	n/a	0.0	0	0	0	FR2	1	R1001P
46.02	1.6	597622	PRACTICE_WORD	n/a	n/a	BEAM	5	-1	[0, 0, 0]	n/a	0	0	0	n/a	n/a	0.0	0	0	0	FR2	1	R1001P
48.438	1.6	598831	PRACTICE_WORD	n/a	n/a	ATTIC	6	-1	[0, 0, 0]	n/a	0	0	0	n/a	n/a	0.0	0	0	0	FR2	1	R1001P
50.955	1.6	600089	PRACTICE_WORD	n/a	n/a	RING	7	-1	[0, 0, 0]	n/a	0	0	0	n/a	n/a	0.0	0	0	0	FR2	1	R1001P
53.572	1.6	601398	PRACTICE_WORD	n/a	n/a	CAMEL	8	-1	[0, 0, 0]	n/a	0	0	0	n/a	n/a	0.0	0	0	0	FR2	1	R1001P
56.039	1.6	602631	PRACTICE_WORD	n/a	n/a	IRON	9	-1	[0, 0, 0]	n/a	0	0	0	n/a	n/a	0.0	0	0	0	FR2	1	R1001P
58.439	1.6	603831	PRACTICE_WORD	n/a	n/a	FLOOD	10	-1	[0, 0, 0]	n/a	0	0	0	n/a	n/a	0.0	0	0	0	FR2	1	R1001P
61.023	1.6	605123	PRACTICE_WORD	n/a	n/a	TONGUE	11	-1	[0, 0, 0]	n/a	0	0	0	n/a	n/a	0.0	0	0	0	FR2	1	R1001P
63.574	1.6	606398	PRACTICE_WORD	n/a	n/a	WAGON	12	-1	[0, 0, 0]	n/a	0	0	0	n/a	n/a	0.0	0	0	0	FR2	1	R1001P
65.191	0.0	607207	PRACTICE_DISTRACT_START	n/a	n/a	n/a	-999	-1	[0, 0, 0]	n/a	0	0	0	n/a	n/a	0.0	0	0	0	FR2	1	R1001P
65.191	0.016	607207	START	n/a	n/a	n/a	-999	-1	[-999, -999, -999]	n/a	0	0	0	n/a	n/a	0.0	0	0	0	FR2	1	R1001P
65.207	4.935	607215	PROB	4.898	n/a	n/a	-999	-1	[9, 1, 6]	16	0	0	0	n/a	n/a	0.0	0	0	0	FR2	1	R1001P
70.142	8.301	609682	PROB	8.267	n/a	n/a	-999	-1	[6, 9, 9]	24	0	0	0	n/a	n/a	0.0	0	0	0	FR2	1	R1001P
78.443	5.835	613833	PROB	5.806	n/a	n/a	-999	-1	[3, 9, 6]	18	0	0	0	n/a	n/a	0.0	0	0	0	FR2	1	R1001P
84.278	13.771	616750	PROB	13.771	n/a	n/a	-999	-1	[8, 4, 3]	16	0	0	0	n/a	n/a	0.0	0	0	0	FR2	1	R1001P
98.049	0.015	623635	STOP	n/a	n/a	n/a	-999	-1	[-999, -999, -999]	n/a	0	0	0	n/a	n/a	0.0	0	0	0	FR2	1	R1001P
98.064	0.568	623643	PRACTICE_DISTRACT_END	n/a	n/a	n/a	-999	-1	[0, 0, 0]	n/a	0	0	0	n/a	n/a	0.0	0	0	0	FR2	1	R1001P
98.632	30.515	623927	PRACTICE_REC_START	n/a	n/a	n/a	-999	-1	[0, 0, 0]	n/a	0	0	0	n/a	n/a	0.0	0	0	0	FR2	1	R1001P
129.147	33.829	639183	PRACTICE_REC_END	n/a	n/a	n/a	-999	-1	[0, 0, 0]	n/a	0	0	0	n/a	n/a	0.0	0	0	0	FR2	1	R1001P
162.976	10.0	656097	COUNTDOWN_START	n/a	n/a	n/a	-999	1	[0, 0, 0]	n/a	0	1	0	n/a	n/a	0.0	0	0	0	FR2	1	R1001P
162.976	10.428	656097	TRIAL	n/a	n/a	n/a	-999	1	[0, 0, 0]	n/a	0	1	0	n/a	n/a	0.0	0	0	0	FR2	1	R1001P
173.404	0.007	661310	COUNTDOWN_END	n/a	n/a	n/a	-999	1	[0, 0, 0]	n/a	0	1	0	n/a	n/a	0.0	0	0	0	FR2	1	R1001P
173.411	1.6	661314	ORIENT	n/a	n/a	n/a	-999	1	[0, 0, 0]	n/a	0	1	0	n/a	n/a	0.0	0	0	0	FR2	1	R1001P
175.878	1.6	662547	WORD	n/a	wordpools/wordpool_EN.txt	EAR	1	1	[0, 0, 0]	n/a	0	1	0	n/a	n/a	0.0	0	0	0	FR2	1	R1001P
178.295	1.6	663756	WORD	n/a	wordpools/wordpool_EN.txt	HOSE	2	1	[0, 0, 0]	n/a	0	1	0	n/a	n/a	0.0	0	0	0	FR2	1	R1001P
180.713	4.6	664965	STIM_ON	n/a	n/a	n/a	-999	1	[0, 0, 0]	n/a	1	1	4600	LDA3	LDA4	1000.0	50	230	300	FR2	1	R1001P
180.929	1.6	665073	WORD	n/a	wordpools/wordpool_EN.txt	BEE	3	1	[0, 0, 0]	n/a	1	1	4600	LDA3	LDA4	1000.0	50	230	300	FR2	1	R1001P
183.546	1.6	666381	WORD	n/a	wordpools/wordpool_EN.txt	JAR	4	1	[0, 0, 0]	n/a	1	1	4600	LDA3	LDA4	1000.0	50	230	300	FR2	1	R1001P
186.08	1.6	667648	WORD	n/a	wordpools/wordpool_EN.txt	DRESS	5	1	[0, 0, 0]	n/a	0	1	0	n/a	n/a	0.0	0	0	0	FR2	1	R1001P
188.63	1.6	668923	WORD	n/a	wordpools/wordpool_EN.txt	TOOL	6	1	[0, 0, 0]	n/a	0	1	0	n/a	n/a	0.0	0	0	0	FR2	1	R1001P
190.921	4.6	670068	STIM_ON	n/a	n/a	n/a	-999	1	[0, 0, 0]	n/a	1	1	4600	LDA3	LDA4	1000.0	50	230	300	FR2	1	R1001P
191.131	1.6	670173	WORD	n/a	wordpools/wordpool_EN.txt	CAGE	7	1	[0, 0, 0]	n/a	1	1	4600	LDA3	LDA4	1000.0	50	230	300	FR2	1	R1001P
193.647	1.6	671431	WORD	n/a	wordpools/wordpool_EN.txt	BRUSH	8	1	[0, 0, 0]	n/a	1	1	4600	LDA3	LDA4	1000.0	50	230	300	FR2	1	R1001P
196.199	1.6	672707	WORD	n/a	wordpools/wordpool_EN.txt	SHIELD	9	1	[0, 0, 0]	n/a	0	1	0	n/a	n/a	0.0	0	0	0	FR2	1	R1001P
198.765	1.6	673990	WORD	n/a	wordpools/wordpool_EN.txt	CLIFF	10	1	[0, 0, 0]	n/a	0	1	0	n/a	n/a	0.0	0	0	0	FR2	1	R1001P
201.146	4.6	675181	STIM_ON	n/a	n/a	n/a	-999	1	[0, 0, 0]	n/a	1	1	4600	LDA3	LDA4	1000.0	50	230	300	FR2	1	R1001P
201.35	1.6	675283	WORD	n/a	wordpools/wordpool_EN.txt	DART	11	1	[0, 0, 0]	n/a	1	1	4600	LDA3	LDA4	1000.0	50	230	300	FR2	1	R1001P
203.967	1.6	676591	WORD	n/a	wordpools/wordpool_EN.txt	COW	12	1	[0, 0, 0]	n/a	1	1	4600	LDA3	LDA4	1000.0	50	230	300	FR2	1	R1001P
205.584	0.001	677400	DISTRACT_START	n/a	n/a	n/a	-999	1	[0, 0, 0]	n/a	1	1	4600	LDA3	LDA4	1000.0	50	230	300	FR2	1	R1001P
205.585	0.016	677400	START	n/a	n/a	n/a	-999	1	[-999, -999, -999]	n/a	0	1	0	n/a	n/a	0.0	0	0	0	FR2	1	R1001P
205.601	10.685	677408	PROB	10.656	n/a	n/a	-999	1	[8, 9, 7]	24	0	1	0	n/a	n/a	0.0	0	0	0	FR2	1	R1001P
216.286	3.584	682750	PROB	3.563	n/a	n/a	-999	1	[2, 4, 8]	14	0	1	0	n/a	n/a	0.0	0	0	0	FR2	1	R1001P
219.87	4.85	684542	PROB	4.818	n/a	n/a	-999	1	[1, 3, 2]	6	0	1	0	n/a	n/a	0.0	0	0	0	FR2	1	R1001P
224.72	6.465	686967	PROB	6.465	n/a	n/a	-999	1	[3, 2, 1]	6	0	1	0	n/a	n/a	0.0	0	0	0	FR2	1	R1001P
231.185	0.003	690199	STOP	n/a	n/a	n/a	-999	1	[-999, -999, -999]	n/a	0	1	0	n/a	n/a	0.0	0	0	0	FR2	1	R1001P
231.188	1.085	690201	DISTRACT_END	n/a	n/a	n/a	-999	1	[0, 0, 0]	n/a	0	1	0	n/a	n/a	0.0	0	0	0	FR2	1	R1001P
232.273	3.467	690743	REC_START	n/a	n/a	n/a	-999	1	[0, 0, 0]	n/a	0	1	0	n/a	n/a	0.0	0	0	0	FR2	1	R1001P
235.74	1.0	692477	REC_WORD_VV	3.467	n/a	<>	-999	1	[0, 0, 0]	n/a	0	1	0	n/a	n/a	0.0	0	0	0	FR2	1	R1001P
236.74	1.458	692977	REC_WORD_VV	4.467	n/a	<>	-999	1	[0, 0, 0]	n/a	0	1	0	n/a	n/a	0.0	0	0	0	FR2	1	R1001P
238.198	15.966	693706	REC_WORD_VV	5.925	n/a	<>	-999	1	[0, 0, 0]	n/a	0	1	0	n/a	n/a	0.0	0	0	0	FR2	1	R1001P
254.164	8.12	701688	REC_WORD	21.891	n/a	BEE	-999	1	[0, 0, 0]	n/a	0	1	0	n/a	n/a	0.0	0	0	0	FR2	1	R1001P
262.284	1.728	705748	REC_END	n/a	n/a	n/a	-999	1	[0, 0, 0]	n/a	0	1	0	n/a	n/a	0.0	0	0	0	FR2	1	R1001P
264.012	0.0	706612	TRIAL	n/a	n/a	n/a	-999	2	[0, 0, 0]	n/a	0	1	0	n/a	n/a	0.0	0	0	0	FR2	1	R1001P
264.012	10.0	706612	COUNTDOWN_START	n/a	n/a	n/a	-999	2	[0, 0, 0]	n/a	0	1	0	n/a	n/a	0.0	0	0	0	FR2	1	R1001P
274.44	0.007	711826	COUNTDOWN_END	n/a	n/a	n/a	-999	2	[0, 0, 0]	n/a	0	1	0	n/a	n/a	0.0	0	0	0	FR2	1	R1001P
274.447	1.6	711829	ORIENT	n/a	n/a	n/a	-999	2	[0, 0, 0]	n/a	0	1	0	n/a	n/a	0.0	0	0	0	FR2	1	R1001P
276.663	4.6	712937	STIM_ON	n/a	n/a	n/a	-999	2	[0, 0, 0]	n/a	1	1	4600	LDA3	LDA4	1000.0	50	230	300	FR2	1	R1001P
276.881	1.6	713046	WORD	n/a	wordpools/wordpool_EN.txt	SHIRT	1	2	[0, 0, 0]	n/a	1	1	4600	LDA3	LDA4	1000.0	50	230	300	FR2	1	R1001P
279.498	1.6	714355	WORD	n/a	wordpools/wordpool_EN.txt	TRUCK	2	2	[0, 0, 0]	n/a	1	1	4600	LDA3	LDA4	1000.0	50	230	300	FR2	1	R1001P
281.932	1.6	715571	WORD	n/a	wordpools/wordpool_EN.txt	PEARL	3	2	[0, 0, 0]	n/a	0	1	0	n/a	n/a	0.0	0	0	0	FR2	1	R1001P
284.432	1.6	716821	WORD	n/a	wordpools/wordpool_EN.txt	SHARK	4	2	[0, 0, 0]	n/a	0	1	0	n/a	n/a	0.0	0	0	0	FR2	1	R1001P
286.78	4.6	717995	STIM_ON	n/a	n/a	n/a	-999	2	[0, 0, 0]	n/a	1	1	4600	LDA3	LDA4	1000.0	50	230	300	FR2	1	R1001P
286.982	1.6	718096	WORD	n/a	wordpools/wordpool_EN.txt	FLOOR	5	2	[0, 0, 0]	n/a	1	1	4600	LDA3	LDA4	1000.0	50	230	300	FR2	1	R1001P
289.516	1.6	719363	WORD	n/a	wordpools/wordpool_EN.txt	STOVE	6	2	[0, 0, 0]	n/a	1	1	4600	LDA3	LDA4	1000.0	50	230	300	FR2	1	R1001P
292.117	1.6	720664	WORD	n/a	wordpools/wordpool_EN.txt	TRAIN	7	2	[0, 0, 0]	n/a	0	1	0	n/a	n/a	0.0	0	0	0	FR2	1	R1001P
294.733	1.6	721972	WORD	n/a	wordpools/wordpool_EN.txt	SPRING	8	2	[0, 0, 0]	n/a	0	1	0	n/a	n/a	0.0	0	0	0	FR2	1	R1001P
297.007	4.6	723109	STIM_ON	n/a	n/a	n/a	-999	2	[0, 0, 0]	n/a	1	1	4600	LDA3	LDA4	1000.0	50	230	300	FR2	1	R1001P
297.218	1.6	723214	WORD	n/a	wordpools/wordpool_EN.txt	CAPE	9	2	[0, 0, 0]	n/a	1	1	4600	LDA3	LDA4	1000.0	50	230	300	FR2	1	R1001P
299.701	1.6	724456	WORD	n/a	wordpools/wordpool_EN.txt	PEACH	10	2	[0, 0, 0]	n/a	1	1	4600	LDA3	LDA4	1000.0	50	230	300	FR2	1	R1001P
302.235	1.6	725722	WORD	n/a	wordpools/wordpool_EN.txt	MUG	11	2	[0, 0, 0]	n/a	0	1	0	n/a	n/a	0.0	0	0	0	FR2	1	R1001P
304.668	1.6	726939	WORD	n/a	wordpools/wordpool_EN.txt	HAT	12	2	[0, 0, 0]	n/a	0	1	0	n/a	n/a	0.0	0	0	0	FR2	1	R1001P
306.269	0.001	727739	DISTRACT_START	n/a	n/a	n/a	-999	2	[0, 0, 0]	n/a	0	1	0	n/a	n/a	0.0	0	0	0	FR2	1	R1001P
306.27	0.016	727740	START	n/a	n/a	n/a	-999	2	[-999, -999, -999]	n/a	0	1	0	n/a	n/a	0.0	0	0	0	FR2	1	R1001P
306.286	5.568	727748	PROB	5.532	n/a	n/a	-999	2	[2, 5, 2]	10	0	1	0	n/a	n/a	0.0	0	0	0	FR2	1	R1001P
311.854	12.719	730532	PROB	12.692	n/a	n/a	-999	2	[9, 2, 3]	14	0	1	0	n/a	n/a	0.0	0	0	0	FR2	1	R1001P
324.573	6.42	736891	PROB	6.42	n/a	n/a	-999	2	[5, 9, 8]	25	0	1	0	n/a	n/a	0.0	0	0	0	FR2	1	R1001P
330.993	0.015	740101	STOP	n/a	n/a	n/a	-999	2	[-999, -999, -999]	n/a	0	1	0	n/a	n/a	0.0	0	0	0	FR2	1	R1001P
331.008	1.117	740108	DISTRACT_END	n/a	n/a	n/a	-999	2	[0, 0, 0]	n/a	0	1	0	n/a	n/a	0.0	0	0	0	FR2	1	R1001P
332.125	1.553	740667	REC_START	n/a	n/a	n/a	-999	2	[0, 0, 0]	n/a	0	1	0	n/a	n/a	0.0	0	0	0	FR2	1	R1001P
333.678	0.155	741443	REC_WORD_VV	1.553	n/a	<>	-999	2	[0, 0, 0]	n/a	0	1	0	n/a	n/a	0.0	0	0	0	FR2	1	R1001P
333.833	0.733	741521	REC_WORD	1.708	n/a	TRAIN	-999	2	[0, 0, 0]	n/a	0	1	0	n/a	n/a	0.0	0	0	0	FR2	1	R1001P
334.566	4.788	741887	REC_WORD	2.441	n/a	DRESS	-999	2	[0, 0, 0]	n/a	0	1	0	n/a	n/a	0.0	0	0	0	FR2	1	R1001P
339.354	8.857	744281	REC_WORD	7.229	n/a	BEE	-999	2	[0, 0, 0]	n/a	0	1	0	n/a	n/a	0.0	0	0	0	FR2	1	R1001P
348.211	13.924	748709	REC_WORD	16.086	n/a	FUR	-999	2	[0, 0, 0]	n/a	0	1	0	n/a	n/a	0.0	0	0	0	FR2	1	R1001P
362.135	1.329	755671	REC_END	n/a	n/a	n/a	-999	2	[0, 0, 0]	n/a	0	1	0	n/a	n/a	0.0	0	0	0	FR2	1	R1001P
363.464	0.0	756335	TRIAL	n/a	n/a	n/a	-999	3	[0, 0, 0]	n/a	0	0	0	n/a	n/a	0.0	0	0	0	FR2	1	R1001P
363.464	10.0	756335	COUNTDOWN_START	n/a	n/a	n/a	-999	3	[0, 0, 0]	n/a	0	0	0	n/a	n/a	0.0	0	0	0	FR2	1	R1001P
373.892	0.007	761549	COUNTDOWN_END	n/a	n/a	n/a	-999	3	[0, 0, 0]	n/a	0	0	0	n/a	n/a	0.0	0	0	0	FR2	1	R1001P
373.899	1.6	761552	ORIENT	n/a	n/a	n/a	-999	3	[0, 0, 0]	n/a	0	0	0	n/a	n/a	0.0	0	0	0	FR2	1	R1001P
376.516	1.6	762861	WORD	n/a	wordpools/wordpool_EN.txt	STEAK	1	3	[0, 0, 0]	n/a	0	0	0	n/a	n/a	0.0	0	0	0	FR2	1	R1001P
379.117	1.6	764161	WORD	n/a	wordpools/wordpool_EN.txt	STEAM	2	3	[0, 0, 0]	n/a	0	0	0	n/a	n/a	0.0	0	0	0	FR2	1	R1001P
381.666	1.6	765436	WORD	n/a	wordpools/wordpool_EN.txt	GOAT	3	3	[0, 0, 0]	n/a	0	0	0	n/a	n/a	0.0	0	0	0	FR2	1	R1001P
384.051	1.6	766628	WORD	n/a	wordpools/wordpool_EN.txt	ROOM	4	3	[0, 0, 0]	n/a	0	0	0	n/a	n/a	0.0	0	0	0	FR2	1	R1001P
386.617	1.6	767911	WORD	n/a	wordpools/wordpool_EN.txt	NAIL	5	3	[0, 0, 0]	n/a	0	0	0	n/a	n/a	0.0	0	0	0	FR2	1	R1001P
389.002	1.6	769104	WORD	n/a	wordpools/wordpool_EN.txt	SNAKE	6	3	[0, 0, 0]	n/a	0	0	0	n/a	n/a	0.0	0	0	0	FR2	1	R1001P
391.586	1.6	770395	WORD	n/a	wordpools/wordpool_EN.txt	FARM	7	3	[0, 0, 0]	n/a	0	0	0	n/a	n/a	0.0	0	0	0	FR2	1	R1001P
393.969	1.6	771587	WORD	n/a	wordpools/wordpool_EN.txt	HOOF	8	3	[0, 0, 0]	n/a	0	0	0	n/a	n/a	0.0	0	0	0	FR2	1	R1001P
396.387	1.6	772796	WORD	n/a	wordpools/wordpool_EN.txt	FRUIT	9	3	[0, 0, 0]	n/a	0	0	0	n/a	n/a	0.0	0	0	0	FR2	1	R1001P
398.786	1.6	773995	WORD	n/a	wordpools/wordpool_EN.txt	CROW	10	3	[0, 0, 0]	n/a	0	0	0	n/a	n/a	0.0	0	0	0	FR2	1	R1001P
401.221	1.6	775213	WORD	n/a	wordpools/wordpool_EN.txt	POND	11	3	[0, 0, 0]	n/a	0	0	0	n/a	n/a	0.0	0	0	0	FR2	1	R1001P
403.637	1.6	776421	WORD	n/a	wordpools/wordpool_EN.txt	HORN	12	3	[0, 0, 0]	n/a	0	0	0	n/a	n/a	0.0	0	0	0	FR2	1	R1001P
405.238	0.001	777221	DISTRACT_START	n/a	n/a	n/a	-999	3	[0, 0, 0]	n/a	0	0	0	n/a	n/a	0.0	0	0	0	FR2	1	R1001P
405.239	0.016	777222	START	n/a	n/a	n/a	-999	3	[-999, -999, -999]	n/a	0	0	0	n/a	n/a	0.0	0	0	0	FR2	1	R1001P
405.255	5.884	777230	PROB	5.858	n/a	n/a	-999	3	[9, 7, 3]	19	0	0	0	n/a	n/a	0.0	0	0	0	FR2	1	R1001P
411.139	2.768	780171	PROB	2.742	n/a	n/a	-999	3	[2, 5, 1]	6	0	0	0	n/a	n/a	0.0	0	0	0	FR2	1	R1001P
413.907	9.085	781555	PROB	9.054	n/a	n/a	-999	3	[3, 7, 2]	12	0	0	0	n/a	n/a	0.0	0	0	0	FR2	1	R1001P
422.992	3.825	786098	PROB	3.825	n/a	n/a	-999	3	[2, 8, 9]	19	0	0	0	n/a	n/a	0.0	0	0	0	FR2	1	R1001P
426.817	0.009	788010	STOP	n/a	n/a	n/a	-999	3	[-999, -999, -999]	n/a	0	0	0	n/a	n/a	0.0	0	0	0	FR2	1	R1001P
426.826	1.1	788015	DISTRACT_END	n/a	n/a	n/a	-999	3	[0, 0, 0]	n/a	0	0	0	n/a	n/a	0.0	0	0	0	FR2	1	R1001P
427.926	0.856	788564	REC_START	n/a	n/a	n/a	-999	3	[0, 0, 0]	n/a	0	0	0	n/a	n/a	0.0	0	0	0	FR2	1	R1001P
428.782	1.0	788992	REC_WORD	0.856	n/a	SNAKE	-999	3	[0, 0, 0]	n/a	0	0	0	n/a	n/a	0.0	0	0	0	FR2	1	R1001P
429.782	0.318	789492	REC_WORD_VV	1.856	n/a	<>	-999	3	[0, 0, 0]	n/a	0	0	0	n/a	n/a	0.0	0	0	0	FR2	1	R1001P
430.1	0.816	789651	REC_WORD	2.174	n/a	FRUIT	-999	3	[0, 0, 0]	n/a	0	0	0	n/a	n/a	0.0	0	0	0	FR2	1	R1001P
430.916	5.402	790059	REC_WORD	2.99	n/a	COW	-999	3	[0, 0, 0]	n/a	0	0	0	n/a	n/a	0.0	0	0	0	FR2	1	R1001P
436.318	3.776	792760	REC_WORD	8.392	n/a	DRESS	-999	3	[0, 0, 0]	n/a	0	0	0	n/a	n/a	0.0	0	0	0	FR2	1	R1001P
440.094	1.503	794648	REC_WORD	12.168	n/a	NAIL	-999	3	[0, 0, 0]	n/a	0	0	0	n/a	n/a	0.0	0	0	0	FR2	1	R1001P
441.597	12.96	795400	REC_WORD	13.671	n/a	TOE	-999	3	[0, 0, 0]	n/a	0	0	0	n/a	n/a	0.0	0	0	0	FR2	1	R1001P
454.557	3.383	801879	REC_WORD_VV	26.631	n/a	<>	-999	3	[0, 0, 0]	n/a	0	0	0	n/a	n/a	0.0	0	0	0	FR2	1	R1001P
457.94	1.608	803571	REC_END	n/a	n/a	n/a	-999	3	[0, 0, 0]	n/a	0	0	0	n/a	n/a	0.0	0	0	0	FR2	1	R1001P
459.548	10.0	804375	COUNTDOWN_START	n/a	n/a	n/a	-999	4	[0, 0, 0]	n/a	0	1	0	n/a	n/a	0.0	0	0	0	FR2	1	R1001P
459.549	10.427	804375	TRIAL	n/a	n/a	n/a	-999	4	[0, 0, 0]	n/a	0	1	0	n/a	n/a	0.0	0	0	0	FR2	1	R1001P
469.976	0.008	809588	COUNTDOWN_END	n/a	n/a	n/a	-999	4	[0, 0, 0]	n/a	0	1	0	n/a	n/a	0.0	0	0	0	FR2	1	R1001P
469.984	1.6	809592	ORIENT	n/a	n/a	n/a	-999	4	[0, 0, 0]	n/a	0	1	0	n/a	n/a	0.0	0	0	0	FR2	1	R1001P
472.253	4.6	810727	STIM_ON	n/a	n/a	n/a	-999	4	[0, 0, 0]	n/a	1	1	4600	LDA3	LDA4	1000.0	50	230	300	FR2	1	R1001P
472.468	1.6	810834	WORD	n/a	wordpools/wordpool_EN.txt	PEN	1	4	[0, 0, 0]	n/a	1	1	4600	LDA3	LDA4	1000.0	50	230	300	FR2	1	R1001P
474.918	1.6	812059	WORD	n/a	wordpools/wordpool_EN.txt	SHEEP	2	4	[0, 0, 0]	n/a	1	1	4600	LDA3	LDA4	1000.0	50	230	300	FR2	1	R1001P
477.402	1.6	813301	WORD	n/a	wordpools/wordpool_EN.txt	BOOK	3	4	[0, 0, 0]	n/a	0	1	0	n/a	n/a	0.0	0	0	0	FR2	1	R1001P
479.801	1.6	814501	WORD	n/a	wordpools/wordpool_EN.txt	SKY	4	4	[0, 0, 0]	n/a	0	1	0	n/a	n/a	0.0	0	0	0	FR2	1	R1001P
482.111	4.6	815656	STIM_ON	n/a	n/a	n/a	-999	4	[0, 0, 0]	n/a	1	1	4600	LDA3	LDA4	1000.0	50	230	300	FR2	1	R1001P
482.319	1.6	815760	WORD	n/a	wordpools/wordpool_EN.txt	FLAG	5	4	[0, 0, 0]	n/a	1	1	4600	LDA3	LDA4	1000.0	50	230	300	FR2	1	R1001P
484.886	1.6	817043	WORD	n/a	wordpools/wordpool_EN.txt	STAIR	6	4	[0, 0, 0]	n/a	1	1	4600	LDA3	LDA4	1000.0	50	230	300	FR2	1	R1001P
487.487	1.6	818343	WORD	n/a	wordpools/wordpool_EN.txt	FUDGE	7	4	[0, 0, 0]	n/a	0	1	0	n/a	n/a	0.0	0	0	0	FR2	1	R1001P
489.988	1.6	819594	WORD	n/a	wordpools/wordpool_EN.txt	HAND	8	4	[0, 0, 0]	n/a	0	1	0	n/a	n/a	0.0	0	0	0	FR2	1	R1001P
492.279	4.6	820739	STIM_ON	n/a	n/a	n/a	-999	4	[0, 0, 0]	n/a	1	1	4600	LDA3	LDA4	1000.0	50	230	300	FR2	1	R1001P
492.488	1.6	820844	WORD	n/a	wordpools/wordpool_EN.txt	CLAY	9	4	[0, 0, 0]	n/a	1	1	4600	LDA3	LDA4	1000.0	50	230	300	FR2	1	R1001P
494.905	1.6	822052	WORD	n/a	wordpools/wordpool_EN.txt	DOLL	10	4	[0, 0, 0]	n/a	1	1	4600	LDA3	LDA4	1000.0	50	230	300	FR2	1	R1001P
497.489	1.6	823344	WORD	n/a	wordpools/wordpool_EN.txt	BROOM	11	4	[0, 0, 0]	n/a	0	1	0	n/a	n/a	0.0	0	0	0	FR2	1	R1001P
499.923	1.6	824561	WORD	n/a	wordpools/wordpool_EN.txt	FORT	12	4	[0, 0, 0]	n/a	0	1	0	n/a	n/a	0.0	0	0	0	FR2	1	R1001P
501.54	0.001	825369	DISTRACT_START	n/a	n/a	n/a	-999	4	[0, 0, 0]	n/a	0	1	0	n/a	n/a	0.0	0	0	0	FR2	1	R1001P
501.541	0.015	825370	START	n/a	n/a	n/a	-999	4	[-999, -999, -999]	n/a	0	1	0	n/a	n/a	0.0	0	0	0	FR2	1	R1001P
501.556	5.601	825377	PROB	5.573	n/a	n/a	-999	4	[5, 5, 9]	19	0	1	0	n/a	n/a	0.0	0	0	0	FR2	1	R1001P
507.157	5.685	828178	PROB	5.66	n/a	n/a	-999	4	[3, 7, 8]	18	0	1	0	n/a	n/a	0.0	0	0	0	FR2	1	R1001P
512.842	3.667	831020	PROB	3.631	n/a	n/a	-999	4	[9, 1, 4]	14	0	1	0	n/a	n/a	0.0	0	0	0	FR2	1	R1001P
516.509	7.004	832854	PROB	7.004	n/a	n/a	-999	4	[3, 1, 7]	11	0	1	0	n/a	n/a	0.0	0	0	0	FR2	1	R1001P
523.513	0.014	836355	STOP	n/a	n/a	n/a	-999	4	[-999, -999, -999]	n/a	0	1	0	n/a	n/a	0.0	0	0	0	FR2	1	R1001P
523.527	1.1	836362	DISTRACT_END	n/a	n/a	n/a	-999	4	[0, 0, 0]	n/a	0	1	0	n/a	n/a	0.0	0	0	0	FR2	1	R1001P
524.627	11.162	836912	REC_START	n/a	n/a	n/a	-999	4	[0, 0, 0]	n/a	0	1	0	n/a	n/a	0.0	0	0	0	FR2	1	R1001P
535.789	6.596	842493	REC_WORD	11.162	n/a	COW	-999	4	[0, 0, 0]	n/a	0	1	0	n/a	n/a	0.0	0	0	0	FR2	1	R1001P
542.385	0.516	845791	REC_WORD	17.758	n/a	BOOT	-999	4	[0, 0, 0]	n/a	0	1	0	n/a	n/a	0.0	0	0	0	FR2	1	R1001P
542.901	0.742	846049	REC_WORD	18.274	n/a	GIANT	-999	4	[0, 0, 0]	n/a	0	1	0	n/a	n/a	0.0	0	0	0	FR2	1	R1001P
543.643	2.334	846420	REC_WORD	19.016	n/a	COTTON	-999	4	[0, 0, 0]	n/a	0	1	0	n/a	n/a	0.0	0	0	0	FR2	1	R1001P
545.977	2.836	847587	REC_WORD	21.35	n/a	BARN	-999	4	[0, 0, 0]	n/a	0	1	0	n/a	n/a	0.0	0	0	0	FR2	1	R1001P
548.813	5.824	849005	REC_WORD	24.186	n/a	HOOF	-999	4	[0, 0, 0]	n/a	0	1	0	n/a	n/a	0.0	0	0	0	FR2	1	R1001P
554.637	1.463	851917	REC_END	n/a	n/a	n/a	-999	4	[0, 0, 0]	n/a	0	1	0	n/a	n/a	0.0	0	0	0	FR2	1	R1001P
556.1	0.0	852648	TRIAL	n/a	n/a	n/a	-999	5	[0, 0, 0]	n/a	0	1	0	n/a	n/a	0.0	0	0	0	FR2	1	R1001P
556.1	10.0	852648	COUNTDOWN_START	n/a	n/a	n/a	-999	5	[0, 0, 0]	n/a	0	1	0	n/a	n/a	0.0	0	0	0	FR2	1	R1001P
566.528	0.007	857862	COUNTDOWN_END	n/a	n/a	n/a	-999	5	[0, 0, 0]	n/a	0	1	0	n/a	n/a	0.0	0	0	0	FR2	1	R1001P
566.535	1.6	857865	ORIENT	n/a	n/a	n/a	-999	5	[0, 0, 0]	n/a	0	1	0	n/a	n/a	0.0	0	0	0	FR2	1	R1001P
568.764	4.6	858980	STIM_ON	n/a	n/a	n/a	-999	5	[0, 0, 0]	n/a	1	1	4600	LDA3	LDA4	1000.0	50	230	300	FR2	1	R1001P
568.969	1.6	859082	WORD	n/a	wordpools/wordpool_EN.txt	SLEEVE	1	5	[0, 0, 0]	n/a	1	1	4600	LDA3	LDA4	1000.0	50	230	300	FR2	1	R1001P
571.353	1.6	860274	WORD	n/a	wordpools/wordpool_EN.txt	SQUARE	2	5	[0, 0, 0]	n/a	1	1	4600	LDA3	LDA4	1000.0	50	230	300	FR2	1	R1001P
573.97	1.6	861582	WORD	n/a	wordpools/wordpool_EN.txt	SHELL	3	5	[0, 0, 0]	n/a	0	1	0	n/a	n/a	0.0	0	0	0	FR2	1	R1001P
576.554	1.6	862874	WORD	n/a	wordpools/wordpool_EN.txt	RIB	4	5	[0, 0, 0]	n/a	0	1	0	n/a	n/a	0.0	0	0	0	FR2	1	R1001P
578.85	4.6	864022	STIM_ON	n/a	n/a	n/a	-999	5	[0, 0, 0]	n/a	1	1	4600	LDA3	LDA4	1000.0	50	230	300	FR2	1	R1001P
579.054	1.6	864124	WORD	n/a	wordpools/wordpool_EN.txt	SUIT	5	5	[0, 0, 0]	n/a	1	1	4600	LDA3	LDA4	1000.0	50	230	300	FR2	1	R1001P
581.538	1.6	865366	WORD	n/a	wordpools/wordpool_EN.txt	ROOT	6	5	[0, 0, 0]	n/a	1	1	4600	LDA3	LDA4	1000.0	50	230	300	FR2	1	R1001P
584.105	1.6	866650	WORD	n/a	wordpools/wordpool_EN.txt	BOARD	7	5	[0, 0, 0]	n/a	0	1	0	n/a	n/a	0.0	0	0	0	FR2	1	R1001P
586.671	1.6	867933	WORD	n/a	wordpools/wordpool_EN.txt	ICE	8	5	[0, 0, 0]	n/a	0	1	0	n/a	n/a	0.0	0	0	0	FR2	1	R1001P
589.071	4.6	869133	STIM_ON	n/a	n/a	n/a	-999	5	[0, 0, 0]	n/a	1	1	4600	LDA3	LDA4	1000.0	50	230	300	FR2	1	R1001P
589.273	1.6	869234	WORD	n/a	wordpools/wordpool_EN.txt	HOOK	9	5	[0, 0, 0]	n/a	1	1	4600	LDA3	LDA4	1000.0	50	230	300	FR2	1	R1001P
591.823	1.6	870509	WORD	n/a	wordpools/wordpool_EN.txt	FOOT	10	5	[0, 0, 0]	n/a	1	1	4600	LDA3	LDA4	1000.0	50	230	300	FR2	1	R1001P
594.39	1.6	871792	WORD	n/a	wordpools/wordpool_EN.txt	SEA	11	5	[0, 0, 0]	n/a	0	1	0	n/a	n/a	0.0	0	0	0	FR2	1	R1001P
596.908	1.6	873051	WORD	n/a	wordpools/wordpool_EN.txt	GUARD	12	5	[0, 0, 0]	n/a	0	1	0	n/a	n/a	0.0	0	0	0	FR2	1	R1001P
598.525	0.001	873859	DISTRACT_START	n/a	n/a	n/a	-999	5	[0, 0, 0]	n/a	0	1	0	n/a	n/a	0.0	0	0	0	FR2	1	R1001P
598.526	0.015	873860	START	n/a	n/a	n/a	-999	5	[-999, -999, -999]	n/a	0	1	0	n/a	n/a	0.0	0	0	0	FR2	1	R1001P
598.541	8.385	873867	PROB	8.364	n/a	n/a	-999	5	[4, 9, 2]	13	0	1	0	n/a	n/a	0.0	0	0	0	FR2	1	R1001P
606.926	3.451	878060	PROB	3.419	n/a	n/a	-999	5	[4, 6, 9]	19	0	1	0	n/a	n/a	0.0	0	0	0	FR2	1	R1001P
610.377	5.333	879785	PROB	5.311	n/a	n/a	-999	5	[6, 9, 3]	18	0	1	0	n/a	n/a	0.0	0	0	0	FR2	1	R1001P
615.71	3.419	882451	PROB	3.419	n/a	n/a	-999	5	[5, 7, 3]	1	0	1	0	n/a	n/a	0.0	0	0	0	FR2	1	R1001P
619.129	0.016	884161	STOP	n/a	n/a	n/a	-999	5	[-999, -999, -999]	n/a	0	1	0	n/a	n/a	0.0	0	0	0	FR2	1	R1001P
619.145	1.017	884169	DISTRACT_END	n/a	n/a	n/a	-999	5	[0, 0, 0]	n/a	0	1	0	n/a	n/a	0.0	0	0	0	FR2	1	R1001P
620.162	5.163	884677	REC_START	n/a	n/a	n/a	-999	5	[0, 0, 0]	n/a	0	1	0	n/a	n/a	0.0	0	0	0	FR2	1	R1001P
625.325	1.0	887259	REC_WORD_VV	5.163	n/a	<>	-999	5	[0, 0, 0]	n/a	0	1	0	n/a	n/a	0.0	0	0	0	FR2	1	R1001P
626.325	1.0	887759	REC_WORD_VV	6.163	n/a	<>	-999	5	[0, 0, 0]	n/a	0	1	0	n/a	n/a	0.0	0	0	0	FR2	1	R1001P
627.325	1.0	888259	REC_WORD_VV	7.163	n/a	<>	-999	5	[0, 0, 0]	n/a	0	1	0	n/a	n/a	0.0	0	0	0	FR2	1	R1001P
628.325	1.542	888759	REC_WORD_VV	8.163	n/a	<>	-999	5	[0, 0, 0]	n/a	0	1	0	n/a	n/a	0.0	0	0	0	FR2	1	R1001P
629.867	1.074	889529	REC_WORD_VV	9.705	n/a	<>	-999	5	[0, 0, 0]	n/a	0	1	0	n/a	n/a	0.0	0	0	0	FR2	1	R1001P
630.941	3.741	890066	REC_WORD_VV	10.779	n/a	<>	-999	5	[0, 0, 0]	n/a	0	1	0	n/a	n/a	0.0	0	0	0	FR2	1	R1001P
634.682	15.494	891937	REC_WORD_VV	14.52	n/a	<>	-999	5	[0, 0, 0]	n/a	0	1	0	n/a	n/a	0.0	0	0	0	FR2	1	R1001P
650.176	1.342	899683	REC_END	n/a	n/a	n/a	-999	5	[0, 0, 0]	n/a	0	1	0	n/a	n/a	0.0	0	0	0	FR2	1	R1001P
651.518	0.0	900354	TRIAL	n/a	n/a	n/a	-999	6	[0, 0, 0]	n/a	0	0	0	n/a	n/a	0.0	0	0	0	FR2	1	R1001P
651.518	10.0	900354	COUNTDOWN_START	n/a	n/a	n/a	-999	6	[0, 0, 0]	n/a	0	0	0	n/a	n/a	0.0	0	0	0	FR2	1	R1001P
661.946	0.007	905568	COUNTDOWN_END	n/a	n/a	n/a	-999	6	[0, 0, 0]	n/a	0	0	0	n/a	n/a	0.0	0	0	0	FR2	1	R1001P
661.953	1.6	905572	ORIENT	n/a	n/a	n/a	-999	6	[0, 0, 0]	n/a	0	0	0	n/a	n/a	0.0	0	0	0	FR2	1	R1001P
664.504	1.6	906847	WORD	n/a	wordpools/wordpool_EN.txt	DOG	1	6	[0, 0, 0]	n/a	0	0	0	n/a	n/a	0.0	0	0	0	FR2	1	R1001P
667.054	1.6	908122	WORD	n/a	wordpools/wordpool_EN.txt	WOOD	2	6	[0, 0, 0]	n/a	0	0	0	n/a	n/a	0.0	0	0	0	FR2	1	R1001P
669.488	1.6	909339	WORD	n/a	wordpools/wordpool_EN.txt	EEL	3	6	[0, 0, 0]	n/a	0	0	0	n/a	n/a	0.0	0	0	0	FR2	1	R1001P
672.022	1.6	910606	WORD	n/a	wordpools/wordpool_EN.txt	FOAM	4	6	[0, 0, 0]	n/a	0	0	0	n/a	n/a	0.0	0	0	0	FR2	1	R1001P
674.489	1.6	911839	WORD	n/a	wordpools/wordpool_EN.txt	MAIL	5	6	[0, 0, 0]	n/a	0	0	0	n/a	n/a	0.0	0	0	0	FR2	1	R1001P
677.123	1.6	913156	WORD	n/a	wordpools/wordpool_EN.txt	WOLF	6	6	[0, 0, 0]	n/a	0	0	0	n/a	n/a	0.0	0	0	0	FR2	1	R1001P
679.622	1.6	914406	WORD	n/a	wordpools/wordpool_EN.txt	LAND	7	6	[0, 0, 0]	n/a	0	0	0	n/a	n/a	0.0	0	0	0	FR2	1	R1001P
682.14	1.6	915665	WORD	n/a	wordpools/wordpool_EN.txt	WHEEL	8	6	[0, 0, 0]	n/a	0	0	0	n/a	n/a	0.0	0	0	0	FR2	1	R1001P
684.591	1.6	916890	WORD	n/a	wordpools/wordpool_EN.txt	CHALK	9	6	[0, 0, 0]	n/a	0	0	0	n/a	n/a	0.0	0	0	0	FR2	1	R1001P
687.125	1.6	918157	WORD	n/a	wordpools/wordpool_EN.txt	TAIL	10	6	[0, 0, 0]	n/a	0	0	0	n/a	n/a	0.0	0	0	0	FR2	1	R1001P
689.691	1.6	919440	WORD	n/a	wordpools/wordpool_EN.txt	SIGN	11	6	[0, 0, 0]	n/a	0	0	0	n/a	n/a	0.0	0	0	0	FR2	1	R1001P
692.276	1.6	920732	WORD	n/a	wordpools/wordpool_EN.txt	TANK	12	6	[0, 0, 0]	n/a	0	0	0	n/a	n/a	0.0	0	0	0	FR2	1	R1001P
693.893	0.001	921541	DISTRACT_START	n/a	n/a	n/a	-999	6	[0, 0, 0]	n/a	0	0	0	n/a	n/a	0.0	0	0	0	FR2	1	R1001P
693.894	0.015	921541	START	n/a	n/a	n/a	-999	6	[-999, -999, -999]	n/a	0	0	0	n/a	n/a	0.0	0	0	0	FR2	1	R1001P
693.909	8.952	921549	PROB	8.932	n/a	n/a	-999	6	[2, 5, 2]	9	0	0	0	n/a	n/a	0.0	0	0	0	FR2	1	R1001P
702.861	3.984	926024	PROB	3.947	n/a	n/a	-999	6	[1, 7, 5]	13	0	0	0	n/a	n/a	0.0	0	0	0	FR2	1	R1001P
706.845	9.268	928016	PROB	9.268	n/a	n/a	-999	6	[4, 9, 7]	20	0	0	0	n/a	n/a	0.0	0	0	0	FR2	1	R1001P
716.113	0.017	932650	STOP	n/a	n/a	n/a	-999	6	[-999, -999, -999]	n/a	0	0	0	n/a	n/a	0.0	0	0	0	FR2	1	R1001P
716.13	1.168	932659	DISTRACT_END	n/a	n/a	n/a	-999	6	[0, 0, 0]	n/a	0	0	0	n/a	n/a	0.0	0	0	0	FR2	1	R1001P
717.298	2.256	933243	REC_START	n/a	n/a	n/a	-999	6	[0, 0, 0]	n/a	0	0	0	n/a	n/a	0.0	0	0	0	FR2	1	R1001P
719.554	0.865	934371	REC_WORD	2.256	n/a	SNOW	-999	6	[0, 0, 0]	n/a	0	0	0	n/a	n/a	0.0	0	0	0	FR2	1	R1001P
720.419	3.307	934803	REC_WORD	3.121	n/a	ICE	-999	6	[0, 0, 0]	n/a	0	0	0	n/a	n/a	0.0	0	0	0	FR2	1	R1001P
723.726	8.77	936456	REC_WORD	6.428	n/a	SNAKE	-999	6	[0, 0, 0]	n/a	0	0	0	n/a	n/a	0.0	0	0	0	FR2	1	R1001P
732.496	14.812	940841	REC_WORD	15.198	n/a	HOOP	-999	6	[0, 0, 0]	n/a	0	0	0	n/a	n/a	0.0	0	0	0	FR2	1	R1001P
747.308	0.662	948247	REC_END	n/a	n/a	n/a	-999	6	[0, 0, 0]	n/a	0	0	0	n/a	n/a	0.0	0	0	0	FR2	1	R1001P
747.97	0.0	948578	TRIAL	n/a	n/a	n/a	-999	7	[0, 0, 0]	n/a	0	1	0	n/a	n/a	0.0	0	0	0	FR2	1	R1001P
747.97	10.0	948578	COUNTDOWN_START	n/a	n/a	n/a	-999	7	[0, 0, 0]	n/a	0	1	0	n/a	n/a	0.0	0	0	0	FR2	1	R1001P
758.398	0.007	953791	COUNTDOWN_END	n/a	n/a	n/a	-999	7	[0, 0, 0]	n/a	0	1	0	n/a	n/a	0.0	0	0	0	FR2	1	R1001P
758.405	1.6	953795	ORIENT	n/a	n/a	n/a	-999	7	[0, 0, 0]	n/a	0	1	0	n/a	n/a	0.0	0	0	0	FR2	1	R1001P
760.905	1.6	955045	WORD	n/a	wordpools/wordpool_EN.txt	JUDGE	1	7	[0, 0, 0]	n/a	0	1	0	n/a	n/a	0.0	0	0	0	FR2	1	R1001P
763.489	1.6	956337	WORD	n/a	wordpools/wordpool_EN.txt	SOCK	2	7	[0, 0, 0]	n/a	0	1	0	n/a	n/a	0.0	0	0	0	FR2	1	R1001P
765.69	4.6	957437	STIM_ON	n/a	n/a	n/a	-999	7	[0, 0, 0]	n/a	1	1	4600	LDA3	LDA4	1000.0	50	230	300	FR2	1	R1001P
765.906	1.6	957545	WORD	n/a	wordpools/wordpool_EN.txt	FISH	3	7	[0, 0, 0]	n/a	1	1	4600	LDA3	LDA4	1000.0	50	230	300	FR2	1	R1001P
768.44	1.6	958812	WORD	n/a	wordpools/wordpool_EN.txt	PLANE	4	7	[0, 0, 0]	n/a	1	1	4600	LDA3	LDA4	1000.0	50	230	300	FR2	1	R1001P
771.024	1.6	960104	WORD	n/a	wordpools/wordpool_EN.txt	SCHOOL	5	7	[0, 0, 0]	n/a	0	1	0	n/a	n/a	0.0	0	0	0	FR2	1	R1001P
773.408	1.6	961296	WORD	n/a	wordpools/wordpool_EN.txt	THUMB	6	7	[0, 0, 0]	n/a	0	1	0	n/a	n/a	0.0	0	0	0	FR2	1	R1001P
775.675	4.6	962429	STIM_ON	n/a	n/a	n/a	-999	7	[0, 0, 0]	n/a	1	1	4600	LDA3	LDA4	1000.0	50	230	300	FR2	1	R1001P
775.891	1.6	962537	WORD	n/a	wordpools/wordpool_EN.txt	SPOON	7	7	[0, 0, 0]	n/a	1	1	4600	LDA3	LDA4	1000.0	50	230	300	FR2	1	R1001P
778.425	1.6	963804	WORD	n/a	wordpools/wordpool_EN.txt	BATH	8	7	[0, 0, 0]	n/a	1	1	4600	LDA3	LDA4	1000.0	50	230	300	FR2	1	R1001P
780.992	1.6	965088	WORD	n/a	wordpools/wordpool_EN.txt	SALT	9	7	[0, 0, 0]	n/a	0	1	0	n/a	n/a	0.0	0	0	0	FR2	1	R1001P
783.426	1.6	966305	WORD	n/a	wordpools/wordpool_EN.txt	STORE	10	7	[0, 0, 0]	n/a	0	1	0	n/a	n/a	0.0	0	0	0	FR2	1	R1001P
785.784	4.6	967484	STIM_ON	n/a	n/a	n/a	-999	7	[0, 0, 0]	n/a	1	1	4600	LDA3	LDA4	1000.0	50	230	300	FR2	1	R1001P
785.993	1.6	967588	WORD	n/a	wordpools/wordpool_EN.txt	CORN	11	7	[0, 0, 0]	n/a	1	1	4600	LDA3	LDA4	1000.0	50	230	300	FR2	1	R1001P
788.394	1.6	968789	WORD	n/a	wordpools/wordpool_EN.txt	CUBE	12	7	[0, 0, 0]	n/a	1	1	4600	LDA3	LDA4	1000.0	50	230	300	FR2	1	R1001P
790.011	0.001	969597	DISTRACT_START	n/a	n/a	n/a	-999	7	[0, 0, 0]	n/a	1	1	4600	LDA3	LDA4	1000.0	50	230	300	FR2	1	R1001P
790.012	0.015	969598	START	n/a	n/a	n/a	-999	7	[-999, -999, -999]	n/a	0	1	0	n/a	n/a	0.0	0	0	0	FR2	1	R1001P
790.027	6.701	969605	PROB	6.669	n/a	n/a	-999	7	[2, 8, 7]	17	0	1	0	n/a	n/a	0.0	0	0	0	FR2	1	R1001P
796.728	4.568	972955	PROB	4.537	n/a	n/a	-999	7	[5, 8, 8]	22	0	1	0	n/a	n/a	0.0	0	0	0	FR2	1	R1001P
801.296	7.118	975239	PROB	7.089	n/a	n/a	-999	7	[6, 4, 9]	19	0	1	0	n/a	n/a	0.0	0	0	0	FR2	1	R1001P
808.414	6.354	978798	PROB	6.354	n/a	n/a	-999	7	[9, 4, 9]	22	0	1	0	n/a	n/a	0.0	0	0	0	FR2	1	R1001P
814.768	0.013	981975	STOP	n/a	n/a	n/a	-999	7	[-999, -999, -999]	n/a	0	1	0	n/a	n/a	0.0	0	0	0	FR2	1	R1001P
814.781	1.185	981981	DISTRACT_END	n/a	n/a	n/a	-999	7	[0, 0, 0]	n/a	0	1	0	n/a	n/a	0.0	0	0	0	FR2	1	R1001P
815.966	6.429	982574	REC_START	n/a	n/a	n/a	-999	7	[0, 0, 0]	n/a	0	1	0	n/a	n/a	0.0	0	0	0	FR2	1	R1001P
822.395	4.429	985788	REC_WORD	6.429	n/a	SHELL	-999	7	[0, 0, 0]	n/a	0	1	0	n/a	n/a	0.0	0	0	0	FR2	1	R1001P
826.824	10.294	988003	REC_WORD	10.858	n/a	SALT	-999	7	[0, 0, 0]	n/a	0	1	0	n/a	n/a	0.0	0	0	0	FR2	1	R1001P
837.118	2.561	993149	REC_WORD	21.152	n/a	SUGAR	-999	7	[0, 0, 0]	n/a	0	1	0	n/a	n/a	0.0	0	0	0	FR2	1	R1001P
839.679	1.252	994430	REC_WORD	23.713	n/a	COW	-999	7	[0, 0, 0]	n/a	0	1	0	n/a	n/a	0.0	0	0	0	FR2	1	R1001P
840.931	5.044	995056	REC_WORD	24.965	n/a	TOE	-999	7	[0, 0, 0]	n/a	0	1	0	n/a	n/a	0.0	0	0	0	FR2	1	R1001P
845.975	1.646	997578	REC_END	n/a	n/a	n/a	-999	7	[0, 0, 0]	n/a	0	1	0	n/a	n/a	0.0	0	0	0	FR2	1	R1001P
847.621	0.0	998400	TRIAL	n/a	n/a	n/a	-999	8	[0, 0, 0]	n/a	0	1	0	n/a	n/a	0.0	0	0	0	FR2	1	R1001P
847.621	10.0	998400	COUNTDOWN_START	n/a	n/a	n/a	-999	8	[0, 0, 0]	n/a	0	1	0	n/a	n/a	0.0	0	0	0	FR2	1	R1001P
858.049	0.008	1003614	COUNTDOWN_END	n/a	n/a	n/a	-999	8	[0, 0, 0]	n/a	0	1	0	n/a	n/a	0.0	0	0	0	FR2	1	R1001P
858.057	1.6	1003618	ORIENT	n/a	n/a	n/a	-999	8	[0, 0, 0]	n/a	0	1	0	n/a	n/a	0.0	0	0	0	FR2	1	R1001P
860.574	1.6	1004877	WORD	n/a	wordpools/wordpool_EN.txt	CROWN	1	8	[0, 0, 0]	n/a	0	1	0	n/a	n/a	0.0	0	0	0	FR2	1	R1001P
863.058	1.6	1006119	WORD	n/a	wordpools/wordpool_EN.txt	TOAST	2	8	[0, 0, 0]	n/a	0	1	0	n/a	n/a	0.0	0	0	0	FR2	1	R1001P
865.455	4.6	1007317	STIM_ON	n/a	n/a	n/a	-999	8	[0, 0, 0]	n/a	1	1	4600	LDA3	LDA4	1000.0	50	230	300	FR2	1	R1001P
865.657	1.6	1007418	WORD	n/a	wordpools/wordpool_EN.txt	LIP	3	8	[0, 0, 0]	n/a	1	1	4600	LDA3	LDA4	1000.0	50	230	300	FR2	1	R1001P
868.126	1.6	1008652	WORD	n/a	wordpools/wordpool_EN.txt	GOLD	4	8	[0, 0, 0]	n/a	1	1	4600	LDA3	LDA4	1000.0	50	230	300	FR2	1	R1001P
870.708	1.6	1009943	WORD	n/a	wordpools/wordpool_EN.txt	BAG	5	8	[0, 0, 0]	n/a	0	1	0	n/a	n/a	0.0	0	0	0	FR2	1	R1001P
873.31	1.6	1011244	WORD	n/a	wordpools/wordpool_EN.txt	PLATE	6	8	[0, 0, 0]	n/a	0	1	0	n/a	n/a	0.0	0	0	0	FR2	1	R1001P
875.521	4.6	1012350	STIM_ON	n/a	n/a	n/a	-999	8	[0, 0, 0]	n/a	1	1	4600	LDA3	LDA4	1000.0	50	230	300	FR2	1	R1001P
875.726	1.6	1012452	WORD	n/a	wordpools/wordpool_EN.txt	CANE	7	8	[0, 0, 0]	n/a	1	1	4600	LDA3	LDA4	1000.0	50	230	300	FR2	1	R1001P
878.127	1.6	1013653	WORD	n/a	wordpools/wordpool_EN.txt	FROG	8	8	[0, 0, 0]	n/a	1	1	4600	LDA3	LDA4	1000.0	50	230	300	FR2	1	R1001P
880.595	1.6	1014887	WORD	n/a	wordpools/wordpool_EN.txt	BLOOM	9	8	[0, 0, 0]	n/a	0	1	0	n/a	n/a	0.0	0	0	0	FR2	1	R1001P
883.012	1.6	1016095	WORD	n/a	wordpools/wordpool_EN.txt	LOCK	10	8	[0, 0, 0]	n/a	0	1	0	n/a	n/a	0.0	0	0	0	FR2	1	R1001P
885.375	4.6	1017276	STIM_ON	n/a	n/a	n/a	-999	8	[0, 0, 0]	n/a	1	1	4600	LDA3	LDA4	1000.0	50	230	300	FR2	1	R1001P
885.579	1.6	1017378	WORD	n/a	wordpools/wordpool_EN.txt	PIT	11	8	[0, 0, 0]	n/a	1	1	4600	LDA3	LDA4	1000.0	50	230	300	FR2	1	R1001P
888.163	1.6	1018670	WORD	n/a	wordpools/wordpool_EN.txt	POLE	12	8	[0, 0, 0]	n/a	1	1	4600	LDA3	LDA4	1000.0	50	230	300	FR2	1	R1001P
889.779	0.0	1019478	DISTRACT_START	n/a	n/a	n/a	-999	8	[0, 0, 0]	n/a	1	1	4600	LDA3	LDA4	1000.0	50	230	300	FR2	1	R1001P
889.779	0.016	1019478	START	n/a	n/a	n/a	-999	8	[-999, -999, -999]	n/a	0	1	0	n/a	n/a	0.0	0	0	0	FR2	1	R1001P
889.795	7.336	1019486	PROB	7.31	n/a	n/a	-999	8	[2, 3, 3]	8	0	1	0	n/a	n/a	0.0	0	0	0	FR2	1	R1001P
897.131	88.006	1023154	PROB	88.006	n/a	n/a	-999	8	[8, 5, 6]	17	0	1	0	n/a	n/a	0.0	0	0	0	FR2	1	R1001P
985.137	0.01	1067155	STOP	n/a	n/a	n/a	-999	8	[-999, -999, -999]	n/a	0	1	0	n/a	n/a	0.0	0	0	0	FR2	1	R1001P
985.147	1.068	1067160	DISTRACT_END	n/a	n/a	n/a	-999	8	[0, 0, 0]	n/a	0	1	0	n/a	n/a	0.0	0	0	0	FR2	1	R1001P
986.215	1.28	1067694	REC_START	n/a	n/a	n/a	-999	8	[0, 0, 0]	n/a	0	1	0	n/a	n/a	0.0	0	0	0	FR2	1	R1001P
987.495	1.0	1068334	REC_WORD_VV	1.28	n/a	<>	-999	8	[0, 0, 0]	n/a	0	1	0	n/a	n/a	0.0	0	0	0	FR2	1	R1001P
988.495	1.0	1068834	REC_WORD_VV	2.28	n/a	<>	-999	8	[0, 0, 0]	n/a	0	1	0	n/a	n/a	0.0	0	0	0	FR2	1	R1001P
989.495	26.73	1069334	REC_WORD_VV	3.28	n/a	<>	-999	8	[0, 0, 0]	n/a	0	1	0	n/a	n/a	0.0	0	0	0	FR2	1	R1001P
1016.225	1.411	1082698	REC_END	n/a	n/a	n/a	-999	8	[0, 0, 0]	n/a	0	1	0	n/a	n/a	0.0	0	0	0	FR2	1	R1001P
1017.636	0.0	1083403	TRIAL	n/a	n/a	n/a	-999	9	[0, 0, 0]	n/a	0	1	0	n/a	n/a	0.0	0	0	0	FR2	1	R1001P
1017.636	10.0	1083403	COUNTDOWN_START	n/a	n/a	n/a	-999	9	[0, 0, 0]	n/a	0	1	0	n/a	n/a	0.0	0	0	0	FR2	1	R1001P
1028.064	0.008	1088617	COUNTDOWN_END	n/a	n/a	n/a	-999	9	[0, 0, 0]	n/a	0	1	0	n/a	n/a	0.0	0	0	0	FR2	1	R1001P
1028.072	1.6	1088621	ORIENT	n/a	n/a	n/a	-999	9	[0, 0, 0]	n/a	0	1	0	n/a	n/a	0.0	0	0	0	FR2	1	R1001P
1030.539	1.6	1089854	WORD	n/a	wordpools/wordpool_EN.txt	CLOTH	1	9	[0, 0, 0]	n/a	0	1	0	n/a	n/a	0.0	0	0	0	FR2	1	R1001P
1032.94	1.6	1091055	WORD	n/a	wordpools/wordpool_EN.txt	LAKE	2	9	[0, 0, 0]	n/a	0	1	0	n/a	n/a	0.0	0	0	0	FR2	1	R1001P
1035.212	4.6	1092191	STIM_ON	n/a	n/a	n/a	-999	9	[0, 0, 0]	n/a	1	1	4600	LDA3	LDA4	1000.0	50	230	300	FR2	1	R1001P
1035.424	1.6	1092297	WORD	n/a	wordpools/wordpool_EN.txt	KITE	3	9	[0, 0, 0]	n/a	1	1	4600	LDA3	LDA4	1000.0	50	230	300	FR2	1	R1001P
1037.841	1.6	1093505	WORD	n/a	wordpools/wordpool_EN.txt	MOUSE	4	9	[0, 0, 0]	n/a	1	1	4600	LDA3	LDA4	1000.0	50	230	300	FR2	1	R1001P
1040.391	1.6	1094780	WORD	n/a	wordpools/wordpool_EN.txt	SNOW	5	9	[0, 0, 0]	n/a	0	1	0	n/a	n/a	0.0	0	0	0	FR2	1	R1001P
1043.008	1.6	1096089	WORD	n/a	wordpools/wordpool_EN.txt	MULE	6	9	[0, 0, 0]	n/a	0	1	0	n/a	n/a	0.0	0	0	0	FR2	1	R1001P
1045.268	4.6	1097219	STIM_ON	n/a	n/a	n/a	-999	9	[0, 0, 0]	n/a	1	1	4600	LDA3	LDA4	1000.0	50	230	300	FR2	1	R1001P
1045.476	1.6	1097323	WORD	n/a	wordpools/wordpool_EN.txt	JEEP	7	9	[0, 0, 0]	n/a	1	1	4600	LDA3	LDA4	1000.0	50	230	300	FR2	1	R1001P
1048.043	1.6	1098606	WORD	n/a	wordpools/wordpool_EN.txt	DOCK	8	9	[0, 0, 0]	n/a	1	1	4600	LDA3	LDA4	1000.0	50	230	300	FR2	1	R1001P
1050.426	1.6	1099797	WORD	n/a	wordpools/wordpool_EN.txt	DESK	9	9	[0, 0, 0]	n/a	0	1	0	n/a	n/a	0.0	0	0	0	FR2	1	R1001P
1053.01	1.6	1101089	WORD	n/a	wordpools/wordpool_EN.txt	STAR	10	9	[0, 0, 0]	n/a	0	1	0	n/a	n/a	0.0	0	0	0	FR2	1	R1001P
1055.42	4.6	1102294	STIM_ON	n/a	n/a	n/a	-999	9	[0, 0, 0]	n/a	1	1	4600	LDA3	LDA4	1000.0	50	230	300	FR2	1	R1001P
1055.626	1.6	1102397	WORD	n/a	wordpools/wordpool_EN.txt	COUCH	11	9	[0, 0, 0]	n/a	1	1	4600	LDA3	LDA4	1000.0	50	230	300	FR2	1	R1001P
1058.161	1.6	1103665	WORD	n/a	wordpools/wordpool_EN.txt	BOOT	12	9	[0, 0, 0]	n/a	1	1	4600	LDA3	LDA4	1000.0	50	230	300	FR2	1	R1001P
1059.777	0.001	1104473	DISTRACT_START	n/a	n/a	n/a	-999	9	[0, 0, 0]	n/a	1	1	4600	LDA3	LDA4	1000.0	50	230	300	FR2	1	R1001P
1059.778	0.016	1104473	START	n/a	n/a	n/a	-999	9	[-999, -999, -999]	n/a	0	1	0	n/a	n/a	0.0	0	0	0	FR2	1	R1001P
1059.794	13.537	1104481	PROB	13.503	n/a	n/a	-999	9	[3, 4, 6]	13	0	1	0	n/a	n/a	0.0	0	0	0	FR2	1	R1001P
1073.331	3.05	1111249	PROB	3.014	n/a	n/a	-999	9	[1, 2, 1]	4	0	1	0	n/a	n/a	0.0	0	0	0	FR2	1	R1001P
1076.381	12.283	1112774	PROB	12.283	n/a	n/a	-999	9	[5, 7, 8]	20	0	1	0	n/a	n/a	0.0	0	0	0	FR2	1	R1001P
1088.664	0.019	1118915	STOP	n/a	n/a	n/a	-999	9	[-999, -999, -999]	n/a	0	1	0	n/a	n/a	0.0	0	0	0	FR2	1	R1001P
1088.683	1.034	1118925	DISTRACT_END	n/a	n/a	n/a	-999	9	[0, 0, 0]	n/a	0	1	0	n/a	n/a	0.0	0	0	0	FR2	1	R1001P
1089.717	2.252	1119442	REC_START	n/a	n/a	n/a	-999	9	[0, 0, 0]	n/a	0	1	0	n/a	n/a	0.0	0	0	0	FR2	1	R1001P
1091.969	1.445	1120568	REC_WORD	2.252	n/a	SOCK	-999	9	[0, 0, 0]	n/a	0	1	0	n/a	n/a	0.0	0	0	0	FR2	1	R1001P
1093.414	1.627	1121290	REC_WORD	3.697	n/a	MULE	-999	9	[0, 0, 0]	n/a	0	1	0	n/a	n/a	0.0	0	0	0	FR2	1	R1001P
1095.041	13.968	1122104	REC_WORD	5.324	n/a	FLUTE	-999	9	[0, 0, 0]	n/a	0	1	0	n/a	n/a	0.0	0	0	0	FR2	1	R1001P
1109.009	10.718	1129087	REC_WORD	19.292	n/a	CURTAIN	-999	9	[0, 0, 0]	n/a	0	1	0	n/a	n/a	0.0	0	0	0	FR2	1	R1001P
1119.727	1.196	1134446	REC_END	n/a	n/a	n/a	-999	9	[0, 0, 0]	n/a	0	1	0	n/a	n/a	0.0	0	0	0	FR2	1	R1001P
1120.923	0.0	1135044	TRIAL	n/a	n/a	n/a	-999	10	[0, 0, 0]	n/a	0	0	0	n/a	n/a	0.0	0	0	0	FR2	1	R1001P
1120.923	10.0	1135044	COUNTDOWN_START	n/a	n/a	n/a	-999	10	[0, 0, 0]	n/a	0	0	0	n/a	n/a	0.0	0	0	0	FR2	1	R1001P
1131.351	0.007	1140258	COUNTDOWN_END	n/a	n/a	n/a	-999	10	[0, 0, 0]	n/a	0	0	0	n/a	n/a	0.0	0	0	0	FR2	1	R1001P
1131.358	1.6	1140261	ORIENT	n/a	n/a	n/a	-999	10	[0, 0, 0]	n/a	0	0	0	n/a	n/a	0.0	0	0	0	FR2	1	R1001P
1133.791	1.6	1141478	WORD	n/a	wordpools/wordpool_EN.txt	RAT	1	10	[0, 0, 0]	n/a	0	0	0	n/a	n/a	0.0	0	0	0	FR2	1	R1001P
1136.393	1.6	1142779	WORD	n/a	wordpools/wordpool_EN.txt	FORK	2	10	[0, 0, 0]	n/a	0	0	0	n/a	n/a	0.0	0	0	0	FR2	1	R1001P
1138.775	1.6	1143970	WORD	n/a	wordpools/wordpool_EN.txt	FLEA	3	10	[0, 0, 0]	n/a	0	0	0	n/a	n/a	0.0	0	0	0	FR2	1	R1001P
1141.31	1.6	1145237	WORD	n/a	wordpools/wordpool_EN.txt	SNAIL	4	10	[0, 0, 0]	n/a	0	0	0	n/a	n/a	0.0	0	0	0	FR2	1	R1001P
1143.81	1.6	1146487	WORD	n/a	wordpools/wordpool_EN.txt	CLOCK	5	10	[0, 0, 0]	n/a	0	0	0	n/a	n/a	0.0	0	0	0	FR2	1	R1001P
1146.395	1.6	1147779	WORD	n/a	wordpools/wordpool_EN.txt	ROCK	6	10	[0, 0, 0]	n/a	0	0	0	n/a	n/a	0.0	0	0	0	FR2	1	R1001P
1148.811	1.6	1148987	WORD	n/a	wordpools/wordpool_EN.txt	PASTE	7	10	[0, 0, 0]	n/a	0	0	0	n/a	n/a	0.0	0	0	0	FR2	1	R1001P
1151.312	1.6	1150238	WORD	n/a	wordpools/wordpool_EN.txt	DUCK	8	10	[0, 0, 0]	n/a	0	0	0	n/a	n/a	0.0	0	0	0	FR2	1	R1001P
1153.813	1.6	1151488	WORD	n/a	wordpools/wordpool_EN.txt	PIG	9	10	[0, 0, 0]	n/a	0	0	0	n/a	n/a	0.0	0	0	0	FR2	1	R1001P
1156.396	1.6	1152780	WORD	n/a	wordpools/wordpool_EN.txt	CALF	10	10	[0, 0, 0]	n/a	0	0	0	n/a	n/a	0.0	0	0	0	FR2	1	R1001P
1158.847	1.6	1154005	WORD	n/a	wordpools/wordpool_EN.txt	CAVE	11	10	[0, 0, 0]	n/a	0	0	0	n/a	n/a	0.0	0	0	0	FR2	1	R1001P
1161.397	1.6	1155280	WORD	n/a	wordpools/wordpool_EN.txt	TOY	12	10	[0, 0, 0]	n/a	0	0	0	n/a	n/a	0.0	0	0	0	FR2	1	R1001P
1163.014	0.001	1156088	DISTRACT_START	n/a	n/a	n/a	-999	10	[0, 0, 0]	n/a	0	0	0	n/a	n/a	0.0	0	0	0	FR2	1	R1001P
1163.015	0.016	1156089	START	n/a	n/a	n/a	-999	10	[-999, -999, -999]	n/a	0	0	0	n/a	n/a	0.0	0	0	0	FR2	1	R1001P
1163.031	11.469	1156097	PROB	11.434	n/a	n/a	-999	10	[8, 2, 6]	16	0	0	0	n/a	n/a	0.0	0	0	0	FR2	1	R1001P
1174.5	5.651	1161831	PROB	5.629	n/a	n/a	-999	10	[9, 6, 2]	17	0	0	0	n/a	n/a	0.0	0	0	0	FR2	1	R1001P
1180.151	8.746	1164656	PROB	8.746	n/a	n/a	-999	10	[9, 3, 3]	15	0	0	0	n/a	n/a	0.0	0	0	0	FR2	1	R1001P
1188.897	0.006	1169029	STOP	n/a	n/a	n/a	-999	10	[-999, -999, -999]	n/a	0	0	0	n/a	n/a	0.0	0	0	0	FR2	1	R1001P
1188.903	1.084	1169032	DISTRACT_END	n/a	n/a	n/a	-999	10	[0, 0, 0]	n/a	0	0	0	n/a	n/a	0.0	0	0	0	FR2	1	R1001P
1189.987	6.697	1169574	REC_START	n/a	n/a	n/a	-999	10	[0, 0, 0]	n/a	0	0	0	n/a	n/a	0.0	0	0	0	FR2	1	R1001P
1196.684	0.928	1172922	REC_WORD	6.697	n/a	MOUSE	-999	10	[0, 0, 0]	n/a	0	0	0	n/a	n/a	0.0	0	0	0	FR2	1	R1001P
1197.612	3.986	1173386	REC_WORD	7.625	n/a	CAT	-999	10	[0, 0, 0]	n/a	0	0	0	n/a	n/a	0.0	0	0	0	FR2	1	R1001P
1201.598	0.884	1175379	REC_WORD	11.611	n/a	CHIN	-999	10	[0, 0, 0]	n/a	0	0	0	n/a	n/a	0.0	0	0	0	FR2	1	R1001P
1202.482	17.515	1175821	REC_WORD	12.495	n/a	LIP	-999	10	[0, 0, 0]	n/a	0	0	0	n/a	n/a	0.0	0	0	0	FR2	1	R1001P
1219.997	1.412	1184578	REC_END	n/a	n/a	n/a	-999	10	[0, 0, 0]	n/a	0	0	0	n/a	n/a	0.0	0	0	0	FR2	1	R1001P
1221.409	0.0	1185284	TRIAL	n/a	n/a	n/a	-999	11	[0, 0, 0]	n/a	0	1	0	n/a	n/a	0.0	0	0	0	FR2	1	R1001P
1221.409	10.0	1185284	COUNTDOWN_START	n/a	n/a	n/a	-999	11	[0, 0, 0]	n/a	0	1	0	n/a	n/a	0.0	0	0	0	FR2	1	R1001P
1231.837	0.007	1190498	COUNTDOWN_END	n/a	n/a	n/a	-999	11	[0, 0, 0]	n/a	0	1	0	n/a	n/a	0.0	0	0	0	FR2	1	R1001P
1231.844	1.6	1190501	ORIENT	n/a	n/a	n/a	-999	11	[0, 0, 0]	n/a	0	1	0	n/a	n/a	0.0	0	0	0	FR2	1	R1001P
1234.048	4.6	1191603	STIM_ON	n/a	n/a	n/a	-999	11	[0, 0, 0]	n/a	1	1	4600	LDA3	LDA4	1000.0	50	230	300	FR2	1	R1001P
1234.261	1.6	1191710	WORD	n/a	wordpools/wordpool_EN.txt	RICE	1	11	[0, 0, 0]	n/a	1	1	4600	LDA3	LDA4	1000.0	50	230	300	FR2	1	R1001P
1236.644	1.6	1192901	WORD	n/a	wordpools/wordpool_EN.txt	RAKE	2	11	[0, 0, 0]	n/a	1	1	4600	LDA3	LDA4	1000.0	50	230	300	FR2	1	R1001P
1239.079	1.6	1194119	WORD	n/a	wordpools/wordpool_EN.txt	HOLE	3	11	[0, 0, 0]	n/a	0	1	0	n/a	n/a	0.0	0	0	0	FR2	1	R1001P
1241.529	1.6	1195344	WORD	n/a	wordpools/wordpool_EN.txt	RUG	4	11	[0, 0, 0]	n/a	0	1	0	n/a	n/a	0.0	0	0	0	FR2	1	R1001P
1243.817	4.6	1196488	STIM_ON	n/a	n/a	n/a	-999	11	[0, 0, 0]	n/a	1	1	4600	LDA3	LDA4	1000.0	50	230	300	FR2	1	R1001P
1244.03	1.6	1196594	WORD	n/a	wordpools/wordpool_EN.txt	MOUTH	5	11	[0, 0, 0]	n/a	1	1	4600	LDA3	LDA4	1000.0	50	230	300	FR2	1	R1001P
1246.43	1.6	1197794	WORD	n/a	wordpools/wordpool_EN.txt	SUN	6	11	[0, 0, 0]	n/a	1	1	4600	LDA3	LDA4	1000.0	50	230	300	FR2	1	R1001P
1248.881	1.6	1199020	WORD	n/a	wordpools/wordpool_EN.txt	GLASS	7	11	[0, 0, 0]	n/a	0	1	0	n/a	n/a	0.0	0	0	0	FR2	1	R1001P
1251.398	1.6	1200278	WORD	n/a	wordpools/wordpool_EN.txt	SOAP	8	11	[0, 0, 0]	n/a	0	1	0	n/a	n/a	0.0	0	0	0	FR2	1	R1001P
1253.696	4.6	1201427	STIM_ON	n/a	n/a	n/a	-999	11	[0, 0, 0]	n/a	1	1	4600	LDA3	LDA4	1000.0	50	230	300	FR2	1	R1001P
1253.898	1.6	1201528	WORD	n/a	wordpools/wordpool_EN.txt	EGG	9	11	[0, 0, 0]	n/a	1	1	4600	LDA3	LDA4	1000.0	50	230	300	FR2	1	R1001P
1256.382	1.6	1202770	WORD	n/a	wordpools/wordpool_EN.txt	BRANCH	10	11	[0, 0, 0]	n/a	1	1	4600	LDA3	LDA4	1000.0	50	230	300	FR2	1	R1001P
1258.916	1.6	1204037	WORD	n/a	wordpools/wordpool_EN.txt	MOOSE	11	11	[0, 0, 0]	n/a	0	1	0	n/a	n/a	0.0	0	0	0	FR2	1	R1001P
1261.483	1.6	1205320	WORD	n/a	wordpools/wordpool_EN.txt	WORM	12	11	[0, 0, 0]	n/a	0	1	0	n/a	n/a	0.0	0	0	0	FR2	1	R1001P
1263.1	0.001	1206129	DISTRACT_START	n/a	n/a	n/a	-999	11	[0, 0, 0]	n/a	0	1	0	n/a	n/a	0.0	0	0	0	FR2	1	R1001P
1263.101	0.016	1206129	START	n/a	n/a	n/a	-999	11	[-999, -999, -999]	n/a	0	1	0	n/a	n/a	0.0	0	0	0	FR2	1	R1001P
1263.117	16.419	1206137	PROB	16.396	n/a	n/a	-999	11	[3, 1, 8]	12	0	1	0	n/a	n/a	0.0	0	0	0	FR2	1	R1001P
1279.536	4.641	1214346	PROB	4.641	n/a	n/a	-999	11	[4, 4, 6]	14	0	1	0	n/a	n/a	0.0	0	0	0	FR2	1	R1001P
1284.177	0.01	1216667	STOP	n/a	n/a	n/a	-999	11	[-999, -999, -999]	n/a	0	1	0	n/a	n/a	0.0	0	0	0	FR2	1	R1001P
1284.187	1.184	1216672	DISTRACT_END	n/a	n/a	n/a	-999	11	[0, 0, 0]	n/a	0	1	0	n/a	n/a	0.0	0	0	0	FR2	1	R1001P
1285.371	2.437	1217264	REC_START	n/a	n/a	n/a	-999	11	[0, 0, 0]	n/a	0	1	0	n/a	n/a	0.0	0	0	0	FR2	1	R1001P
1287.808	3.273	1218482	REC_WORD	2.437	n/a	MOUSE	-999	11	[0, 0, 0]	n/a	0	1	0	n/a	n/a	0.0	0	0	0	FR2	1	R1001P
1291.081	7.483	1220118	REC_WORD	5.71	n/a	MOOSE	-999	11	[0, 0, 0]	n/a	0	1	0	n/a	n/a	0.0	0	0	0	FR2	1	R1001P
1298.564	10.44	1223860	REC_WORD	13.193	n/a	RICE	-999	11	[0, 0, 0]	n/a	0	1	0	n/a	n/a	0.0	0	0	0	FR2	1	R1001P
1309.004	6.378	1229079	REC_WORD	23.633	n/a	BREAD	-999	11	[0, 0, 0]	n/a	0	1	0	n/a	n/a	0.0	0	0	0	FR2	1	R1001P
1315.382	1.695	1232268	REC_END	n/a	n/a	n/a	-999	11	[0, 0, 0]	n/a	0	1	0	n/a	n/a	0.0	0	0	0	FR2	1	R1001P
1317.077	10.0	1233116	COUNTDOWN_START	n/a	n/a	n/a	-999	12	[0, 0, 0]	n/a	0	1	0	n/a	n/a	0.0	0	0	0	FR2	1	R1001P
1317.077	10.428	1233116	TRIAL	n/a	n/a	n/a	-999	12	[0, 0, 0]	n/a	0	1	0	n/a	n/a	0.0	0	0	0	FR2	1	R1001P
1327.505	0.007	1238329	COUNTDOWN_END	n/a	n/a	n/a	-999	12	[0, 0, 0]	n/a	0	1	0	n/a	n/a	0.0	0	0	0	FR2	1	R1001P
1327.512	1.6	1238333	ORIENT	n/a	n/a	n/a	-999	12	[0, 0, 0]	n/a	0	1	0	n/a	n/a	0.0	0	0	0	FR2	1	R1001P
1329.691	4.6	1239422	STIM_ON	n/a	n/a	n/a	-999	12	[0, 0, 0]	n/a	1	1	4600	LDA3	LDA4	1000.0	50	230	300	FR2	1	R1001P
1329.896	1.6	1239525	WORD	n/a	wordpools/wordpool_EN.txt	DEER	1	12	[0, 0, 0]	n/a	1	1	4600	LDA3	LDA4	1000.0	50	230	300	FR2	1	R1001P
1332.296	1.6	1240725	WORD	n/a	wordpools/wordpool_EN.txt	CUP	2	12	[0, 0, 0]	n/a	1	1	4600	LDA3	LDA4	1000.0	50	230	300	FR2	1	R1001P
1334.897	1.6	1242025	WORD	n/a	wordpools/wordpool_EN.txt	JUICE	3	12	[0, 0, 0]	n/a	0	1	0	n/a	n/a	0.0	0	0	0	FR2	1	R1001P
1337.397	1.6	1243275	WORD	n/a	wordpools/wordpool_EN.txt	WAND	4	12	[0, 0, 0]	n/a	0	1	0	n/a	n/a	0.0	0	0	0	FR2	1	R1001P
1339.741	4.6	1244447	STIM_ON	n/a	n/a	n/a	-999	12	[0, 0, 0]	n/a	1	1	4600	LDA3	LDA4	1000.0	50	230	300	FR2	1	R1001P
1339.948	1.6	1244551	WORD	n/a	wordpools/wordpool_EN.txt	GRAPE	5	12	[0, 0, 0]	n/a	1	1	4600	LDA3	LDA4	1000.0	50	230	300	FR2	1	R1001P
1342.365	1.6	1245759	WORD	n/a	wordpools/wordpool_EN.txt	CRANE	6	12	[0, 0, 0]	n/a	1	1	4600	LDA3	LDA4	1000.0	50	230	300	FR2	1	R1001P
1344.915	1.6	1247034	WORD	n/a	wordpools/wordpool_EN.txt	TOE	7	12	[0, 0, 0]	n/a	0	1	0	n/a	n/a	0.0	0	0	0	FR2	1	R1001P
1347.416	1.6	1248284	WORD	n/a	wordpools/wordpool_EN.txt	BANK	8	12	[0, 0, 0]	n/a	0	1	0	n/a	n/a	0.0	0	0	0	FR2	1	R1001P
1349.643	4.6	1249398	STIM_ON	n/a	n/a	n/a	-999	12	[0, 0, 0]	n/a	1	1	4600	LDA3	LDA4	1000.0	50	230	300	FR2	1	R1001P
1349.85	1.6	1249501	WORD	n/a	wordpools/wordpool_EN.txt	WALL	9	12	[0, 0, 0]	n/a	1	1	4600	LDA3	LDA4	1000.0	50	230	300	FR2	1	R1001P
1352.283	1.6	1250718	WORD	n/a	wordpools/wordpool_EN.txt	CLOWN	10	12	[0, 0, 0]	n/a	1	1	4600	LDA3	LDA4	1000.0	50	230	300	FR2	1	R1001P
1354.749	1.6	1251951	WORD	n/a	wordpools/wordpool_EN.txt	MAZE	11	12	[0, 0, 0]	n/a	0	1	0	n/a	n/a	0.0	0	0	0	FR2	1	R1001P
1357.134	1.6	1253143	WORD	n/a	wordpools/wordpool_EN.txt	PIE	12	12	[0, 0, 0]	n/a	0	1	0	n/a	n/a	0.0	0	0	0	FR2	1	R1001P
1358.75	0.001	1253951	DISTRACT_START	n/a	n/a	n/a	-999	12	[0, 0, 0]	n/a	0	1	0	n/a	n/a	0.0	0	0	0	FR2	1	R1001P
1358.751	0.016	1253951	START	n/a	n/a	n/a	-999	12	[-999, -999, -999]	n/a	0	1	0	n/a	n/a	0.0	0	0	0	FR2	1	R1001P
1358.767	16.304	1253959	PROB	16.274	n/a	n/a	-999	12	[6, 5, 6]	17	0	1	0	n/a	n/a	0.0	0	0	0	FR2	1	R1001P
1375.071	5.426	1262111	PROB	5.426	n/a	n/a	-999	12	[1, 6, 4]	11	0	1	0	n/a	n/a	0.0	0	0	0	FR2	1	R1001P
1380.497	0.008	1264824	STOP	n/a	n/a	n/a	-999	12	[-999, -999, -999]	n/a	0	1	0	n/a	n/a	0.0	0	0	0	FR2	1	R1001P
1380.505	1.151	1264828	DISTRACT_END	n/a	n/a	n/a	-999	12	[0, 0, 0]	n/a	0	1	0	n/a	n/a	0.0	0	0	0	FR2	1	R1001P
1381.656	8.707	1265403	REC_START	n/a	n/a	n/a	-999	12	[0, 0, 0]	n/a	0	1	0	n/a	n/a	0.0	0	0	0	FR2	1	R1001P
1390.363	0.581	1269757	REC_WORD	8.707	n/a	FRUIT	-999	12	[0, 0, 0]	n/a	0	1	0	n/a	n/a	0.0	0	0	0	FR2	1	R1001P
1390.944	1.29	1270047	REC_WORD_VV	9.288	n/a	<>	-999	12	[0, 0, 0]	n/a	0	1	0	n/a	n/a	0.0	0	0	0	FR2	1	R1001P
1392.234	5.103	1270692	REC_WORD_VV	10.578	n/a	<>	-999	12	[0, 0, 0]	n/a	0	1	0	n/a	n/a	0.0	0	0	0	FR2	1	R1001P
1397.337	0.816	1273243	REC_WORD	15.681	n/a	CUP	-999	12	[0, 0, 0]	n/a	0	1	0	n/a	n/a	0.0	0	0	0	FR2	1	R1001P
1398.153	0.938	1273651	REC_WORD	16.497	n/a	GLASS	-999	12	[0, 0, 0]	n/a	0	1	0	n/a	n/a	0.0	0	0	0	FR2	1	R1001P
1399.091	12.574	1274120	REC_WORD	17.435	n/a	TOE	-999	12	[0, 0, 0]	n/a	0	1	0	n/a	n/a	0.0	0	0	0	FR2	1	R1001P
1411.665	1.513	1280407	REC_END	n/a	n/a	n/a	-999	12	[0, 0, 0]	n/a	0	1	0	n/a	n/a	0.0	0	0	0	FR2	1	R1001P
1413.178	0.0	1281164	TRIAL	n/a	n/a	n/a	-999	13	[0, 0, 0]	n/a	0	1	0	n/a	n/a	0.0	0	0	0	FR2	1	R1001P
1413.178	10.0	1281164	COUNTDOWN_START	n/a	n/a	n/a	-999	13	[0, 0, 0]	n/a	0	1	0	n/a	n/a	0.0	0	0	0	FR2	1	R1001P
1423.606	0.007	1286377	COUNTDOWN_END	n/a	n/a	n/a	-999	13	[0, 0, 0]	n/a	0	1	0	n/a	n/a	0.0	0	0	0	FR2	1	R1001P
1423.613	1.6	1286381	ORIENT	n/a	n/a	n/a	-999	13	[0, 0, 0]	n/a	0	1	0	n/a	n/a	0.0	0	0	0	FR2	1	R1001P
1425.816	4.6	1287482	STIM_ON	n/a	n/a	n/a	-999	13	[0, 0, 0]	n/a	1	1	4600	LDA3	LDA4	1000.0	50	230	300	FR2	1	R1001P
1426.03	1.6	1287589	WORD	n/a	wordpools/wordpool_EN.txt	SEED	1	13	[0, 0, 0]	n/a	1	1	4600	LDA3	LDA4	1000.0	50	230	300	FR2	1	R1001P
1428.647	1.6	1288898	WORD	n/a	wordpools/wordpool_EN.txt	CONE	2	13	[0, 0, 0]	n/a	1	1	4600	LDA3	LDA4	1000.0	50	230	300	FR2	1	R1001P
1431.065	1.6	1290107	WORD	n/a	wordpools/wordpool_EN.txt	DITCH	3	13	[0, 0, 0]	n/a	0	1	0	n/a	n/a	0.0	0	0	0	FR2	1	R1001P
1433.532	1.6	1291340	WORD	n/a	wordpools/wordpool_EN.txt	BEAN	4	13	[0, 0, 0]	n/a	0	1	0	n/a	n/a	0.0	0	0	0	FR2	1	R1001P
1435.877	4.6	1292512	STIM_ON	n/a	n/a	n/a	-999	13	[0, 0, 0]	n/a	1	1	4600	LDA3	LDA4	1000.0	50	230	300	FR2	1	R1001P
1436.082	1.6	1292615	WORD	n/a	wordpools/wordpool_EN.txt	FOOD	5	13	[0, 0, 0]	n/a	1	1	4600	LDA3	LDA4	1000.0	50	230	300	FR2	1	R1001P
1438.516	1.6	1293832	WORD	n/a	wordpools/wordpool_EN.txt	MOON	6	13	[0, 0, 0]	n/a	1	1	4600	LDA3	LDA4	1000.0	50	230	300	FR2	1	R1001P
1440.9	1.6	1295024	WORD	n/a	wordpools/wordpool_EN.txt	VINE	7	13	[0, 0, 0]	n/a	0	1	0	n/a	n/a	0.0	0	0	0	FR2	1	R1001P
1443.484	1.6	1296316	WORD	n/a	wordpools/wordpool_EN.txt	WEED	8	13	[0, 0, 0]	n/a	0	1	0	n/a	n/a	0.0	0	0	0	FR2	1	R1001P
1445.801	4.6	1297474	STIM_ON	n/a	n/a	n/a	-999	13	[0, 0, 0]	n/a	1	1	4600	LDA3	LDA4	1000.0	50	230	300	FR2	1	R1001P
1446.018	1.6	1297583	WORD	n/a	wordpools/wordpool_EN.txt	STRAW	9	13	[0, 0, 0]	n/a	1	1	4600	LDA3	LDA4	1000.0	50	230	300	FR2	1	R1001P
1448.535	1.6	1298841	WORD	n/a	wordpools/wordpool_EN.txt	DIME	10	13	[0, 0, 0]	n/a	1	1	4600	LDA3	LDA4	1000.0	50	230	300	FR2	1	R1001P
1451.035	1.6	1300091	WORD	n/a	wordpools/wordpool_EN.txt	CHEEK	11	13	[0, 0, 0]	n/a	0	1	0	n/a	n/a	0.0	0	0	0	FR2	1	R1001P
1453.519	1.6	1301333	WORD	n/a	wordpools/wordpool_EN.txt	CHAIR	12	13	[0, 0, 0]	n/a	0	1	0	n/a	n/a	0.0	0	0	0	FR2	1	R1001P
1455.136	0.001	1302141	DISTRACT_START	n/a	n/a	n/a	-999	13	[0, 0, 0]	n/a	0	1	0	n/a	n/a	0.0	0	0	0	FR2	1	R1001P
1455.137	0.016	1302142	START	n/a	n/a	n/a	-999	13	[-999, -999, -999]	n/a	0	1	0	n/a	n/a	0.0	0	0	0	FR2	1	R1001P
1455.153	13.535	1302150	PROB	13.503	n/a	n/a	-999	13	[2, 8, 2]	12	0	1	0	n/a	n/a	0.0	0	0	0	FR2	1	R1001P
1468.688	8.546	1308917	PROB	8.546	n/a	n/a	-999	13	[5, 7, 2]	14	0	1	0	n/a	n/a	0.0	0	0	0	FR2	1	R1001P
1477.234	0.006	1313190	STOP	n/a	n/a	n/a	-999	13	[-999, -999, -999]	n/a	0	1	0	n/a	n/a	0.0	0	0	0	FR2	1	R1001P
1477.24	1.084	1313193	DISTRACT_END	n/a	n/a	n/a	-999	13	[0, 0, 0]	n/a	0	1	0	n/a	n/a	0.0	0	0	0	FR2	1	R1001P
1478.324	30.011	1313735	REC_START	n/a	n/a	n/a	-999	13	[0, 0, 0]	n/a	0	1	0	n/a	n/a	0.0	0	0	0	FR2	1	R1001P
1508.335	0.004	1328739	REC_WORD_VV	30.011	n/a	<>	-999	13	[0, 0, 0]	n/a	0	1	0	n/a	n/a	0.0	0	0	0	FR2	1	R1001P
1508.339	0.674	1328741	REC_END	n/a	n/a	n/a	-999	13	[0, 0, 0]	n/a	0	1	0	n/a	n/a	0.0	0	0	0	FR2	1	R1001P
1509.013	10.0	1329078	COUNTDOWN_START	n/a	n/a	n/a	-999	14	[0, 0, 0]	n/a	0	1	0	n/a	n/a	0.0	0	0	0	FR2	1	R1001P
1509.013	10.428	1329078	TRIAL	n/a	n/a	n/a	-999	14	[0, 0, 0]	n/a	0	1	0	n/a	n/a	0.0	0	0	0	FR2	1	R1001P
1519.441	0.007	1334292	COUNTDOWN_END	n/a	n/a	n/a	-999	14	[0, 0, 0]	n/a	0	1	0	n/a	n/a	0.0	0	0	0	FR2	1	R1001P
1519.448	1.6	1334296	ORIENT	n/a	n/a	n/a	-999	14	[0, 0, 0]	n/a	0	1	0	n/a	n/a	0.0	0	0	0	FR2	1	R1001P
1521.949	1.6	1335546	WORD	n/a	wordpools/wordpool_EN.txt	BEAR	1	14	[0, 0, 0]	n/a	0	1	0	n/a	n/a	0.0	0	0	0	FR2	1	R1001P
1524.499	1.6	1336821	WORD	n/a	wordpools/wordpool_EN.txt	SHOE	2	14	[0, 0, 0]	n/a	0	1	0	n/a	n/a	0.0	0	0	0	FR2	1	R1001P
1526.682	4.6	1337912	STIM_ON	n/a	n/a	n/a	-999	14	[0, 0, 0]	n/a	1	1	4600	LDA3	LDA4	1000.0	50	230	300	FR2	1	R1001P
1526.9	1.6	1338021	WORD	n/a	wordpools/wordpool_EN.txt	SMOKE	3	14	[0, 0, 0]	n/a	1	1	4600	LDA3	LDA4	1000.0	50	230	300	FR2	1	R1001P
1529.3	1.6	1339221	WORD	n/a	wordpools/wordpool_EN.txt	HORSE	4	14	[0, 0, 0]	n/a	1	1	4600	LDA3	LDA4	1000.0	50	230	300	FR2	1	R1001P
1531.683	1.6	1340413	WORD	n/a	wordpools/wordpool_EN.txt	STEM	5	14	[0, 0, 0]	n/a	0	1	0	n/a	n/a	0.0	0	0	0	FR2	1	R1001P
1534.168	1.6	1341655	WORD	n/a	wordpools/wordpool_EN.txt	SAIL	6	14	[0, 0, 0]	n/a	0	1	0	n/a	n/a	0.0	0	0	0	FR2	1	R1001P
1536.441	4.6	1342792	STIM_ON	n/a	n/a	n/a	-999	14	[0, 0, 0]	n/a	1	1	4600	LDA3	LDA4	1000.0	50	230	300	FR2	1	R1001P
1536.65	1.6	1342896	WORD	n/a	wordpools/wordpool_EN.txt	TEETH	7	14	[0, 0, 0]	n/a	1	1	4600	LDA3	LDA4	1000.0	50	230	300	FR2	1	R1001P
1539.018	1.6	1344080	WORD	n/a	wordpools/wordpool_EN.txt	BLUSH	8	14	[0, 0, 0]	n/a	1	1	4600	LDA3	LDA4	1000.0	50	230	300	FR2	1	R1001P
1541.486	1.6	1345314	WORD	n/a	wordpools/wordpool_EN.txt	PET	9	14	[0, 0, 0]	n/a	0	1	0	n/a	n/a	0.0	0	0	0	FR2	1	R1001P
1544.003	1.6	1346572	WORD	n/a	wordpools/wordpool_EN.txt	HOUSE	10	14	[0, 0, 0]	n/a	0	1	0	n/a	n/a	0.0	0	0	0	FR2	1	R1001P
1546.243	4.6	1347692	STIM_ON	n/a	n/a	n/a	-999	14	[0, 0, 0]	n/a	1	1	4600	LDA3	LDA4	1000.0	50	230	300	FR2	1	R1001P
1546.453	1.6	1347797	WORD	n/a	wordpools/wordpool_EN.txt	PRINCE	11	14	[0, 0, 0]	n/a	1	1	4600	LDA3	LDA4	1000.0	50	230	300	FR2	1	R1001P
1548.987	1.6	1349064	WORD	n/a	wordpools/wordpool_EN.txt	BOY	12	14	[0, 0, 0]	n/a	1	1	4600	LDA3	LDA4	1000.0	50	230	300	FR2	1	R1001P
1550.604	0.001	1349873	DISTRACT_START	n/a	n/a	n/a	-999	14	[0, 0, 0]	n/a	1	1	4600	LDA3	LDA4	1000.0	50	230	300	FR2	1	R1001P
1550.605	0.015	1349873	START	n/a	n/a	n/a	-999	14	[-999, -999, -999]	n/a	0	1	0	n/a	n/a	0.0	0	0	0	FR2	1	R1001P
1550.62	8.369	1349881	PROB	8.341	n/a	n/a	-999	14	[4, 3, 2]	9	0	1	0	n/a	n/a	0.0	0	0	0	FR2	1	R1001P
1558.989	5.884	1354065	PROB	5.852	n/a	n/a	-999	14	[6, 4, 7]	17	0	1	0	n/a	n/a	0.0	0	0	0	FR2	1	R1001P
1564.873	8.36	1357007	PROB	8.36	n/a	n/a	-999	14	[1, 9, 9]	19	0	1	0	n/a	n/a	0.0	0	0	0	FR2	1	R1001P
1573.233	0.009	1361187	STOP	n/a	n/a	n/a	-999	14	[-999, -999, -999]	n/a	0	1	0	n/a	n/a	0.0	0	0	0	FR2	1	R1001P
1573.242	1.184	1361191	DISTRACT_END	n/a	n/a	n/a	-999	14	[0, 0, 0]	n/a	0	1	0	n/a	n/a	0.0	0	0	0	FR2	1	R1001P
1574.426	30.0	1361783	REC_START	n/a	n/a	n/a	-999	14	[0, 0, 0]	n/a	0	1	0	n/a	n/a	0.0	0	0	0	FR2	1	R1001P
1604.426	0.011	1376782	REC_WORD_VV	30.0	n/a	<>	-999	14	[0, 0, 0]	n/a	0	1	0	n/a	n/a	0.0	0	0	0	FR2	1	R1001P
1604.437	294.999	1376788	REC_END	n/a	n/a	n/a	-999	14	[0, 0, 0]	n/a	0	1	0	n/a	n/a	0.0	0	0	0	FR2	1	R1001P
1899.436	0.0	1524279	TRIAL	n/a	n/a	n/a	-999	15	[0, 0, 0]	n/a	0	1	0	n/a	n/a	0.0	0	0	0	FR2	1	R1001P
1899.436	10.0	1524279	COUNTDOWN_START	n/a	n/a	n/a	-999	15	[0, 0, 0]	n/a	0	1	0	n/a	n/a	0.0	0	0	0	FR2	1	R1001P
1909.864	0.008	1529493	COUNTDOWN_END	n/a	n/a	n/a	-999	15	[0, 0, 0]	n/a	0	1	0	n/a	n/a	0.0	0	0	0	FR2	1	R1001P
1909.872	1.6	1529497	ORIENT	n/a	n/a	n/a	-999	15	[0, 0, 0]	n/a	0	1	0	n/a	n/a	0.0	0	0	0	FR2	1	R1001P
1912.372	1.6	1530747	WORD	n/a	wordpools/wordpool_EN.txt	VAN	1	15	[0, 0, 0]	n/a	0	1	0	n/a	n/a	0.0	0	0	0	FR2	1	R1001P
1914.805	1.6	1531963	WORD	n/a	wordpools/wordpool_EN.txt	TRAY	2	15	[0, 0, 0]	n/a	0	1	0	n/a	n/a	0.0	0	0	0	FR2	1	R1001P
1917.027	4.6	1533074	STIM_ON	n/a	n/a	n/a	-999	15	[0, 0, 0]	n/a	1	1	4600	LDA3	LDA4	1000.0	50	230	300	FR2	1	R1001P
1917.24	1.6	1533181	WORD	n/a	wordpools/wordpool_EN.txt	MAP	3	15	[0, 0, 0]	n/a	1	1	4600	LDA3	LDA4	1000.0	50	230	300	FR2	1	R1001P
1919.656	1.6	1534389	WORD	n/a	wordpools/wordpool_EN.txt	GLOVE	4	15	[0, 0, 0]	n/a	1	1	4600	LDA3	LDA4	1000.0	50	230	300	FR2	1	R1001P
1922.14	1.6	1535631	WORD	n/a	wordpools/wordpool_EN.txt	SPONGE	5	15	[0, 0, 0]	n/a	0	1	0	n/a	n/a	0.0	0	0	0	FR2	1	R1001P
1924.64	1.6	1536880	WORD	n/a	wordpools/wordpool_EN.txt	SHEET	6	15	[0, 0, 0]	n/a	0	1	0	n/a	n/a	0.0	0	0	0	FR2	1	R1001P
1926.836	4.6	1537978	STIM_ON	n/a	n/a	n/a	-999	15	[0, 0, 0]	n/a	1	1	4600	LDA3	LDA4	1000.0	50	230	300	FR2	1	R1001P
1927.041	1.6	1538081	WORD	n/a	wordpools/wordpool_EN.txt	SLUSH	7	15	[0, 0, 0]	n/a	1	1	4600	LDA3	LDA4	1000.0	50	230	300	FR2	1	R1001P
1929.475	1.6	1539298	WORD	n/a	wordpools/wordpool_EN.txt	JAIL	8	15	[0, 0, 0]	n/a	1	1	4600	LDA3	LDA4	1000.0	50	230	300	FR2	1	R1001P
1932.009	1.6	1540565	WORD	n/a	wordpools/wordpool_EN.txt	SEAT	9	15	[0, 0, 0]	n/a	0	1	0	n/a	n/a	0.0	0	0	0	FR2	1	R1001P
1934.576	1.6	1541848	WORD	n/a	wordpools/wordpool_EN.txt	STREET	10	15	[0, 0, 0]	n/a	0	1	0	n/a	n/a	0.0	0	0	0	FR2	1	R1001P
1936.891	4.6	1543006	STIM_ON	n/a	n/a	n/a	-999	15	[0, 0, 0]	n/a	1	1	4600	LDA3	LDA4	1000.0	50	230	300	FR2	1	R1001P
1937.093	1.6	1543107	WORD	n/a	wordpools/wordpool_EN.txt	TIE	11	15	[0, 0, 0]	n/a	1	1	4600	LDA3	LDA4	1000.0	50	230	300	FR2	1	R1001P
1939.626	1.6	1544373	WORD	n/a	wordpools/wordpool_EN.txt	STICK	12	15	[0, 0, 0]	n/a	1	1	4600	LDA3	LDA4	1000.0	50	230	300	FR2	1	R1001P
1941.227	0.001	1545174	DISTRACT_START	n/a	n/a	n/a	-999	15	[0, 0, 0]	n/a	1	1	4600	LDA3	LDA4	1000.0	50	230	300	FR2	1	R1001P
1941.228	0.016	1545174	START	n/a	n/a	n/a	-999	15	[-999, -999, -999]	n/a	0	1	0	n/a	n/a	0.0	0	0	0	FR2	1	R1001P
1941.244	4.217	1545182	PROB	4.189	n/a	n/a	-999	15	[7, 5, 1]	13	0	1	0	n/a	n/a	0.0	0	0	0	FR2	1	R1001P
1945.461	3.585	1547290	PROB	3.556	n/a	n/a	-999	15	[1, 7, 9]	17	0	1	0	n/a	n/a	0.0	0	0	0	FR2	1	R1001P
1949.046	8.368	1549083	PROB	8.347	n/a	n/a	-999	15	[8, 5, 6]	17	0	1	0	n/a	n/a	0.0	0	0	0	FR2	1	R1001P
1957.414	8.571	1553267	PROB	8.571	n/a	n/a	-999	15	[1, 3, 8]	12	0	1	0	n/a	n/a	0.0	0	0	0	FR2	1	R1001P
1965.985	0.014	1557552	STOP	n/a	n/a	n/a	-999	15	[-999, -999, -999]	n/a	0	1	0	n/a	n/a	0.0	0	0	0	FR2	1	R1001P
1965.999	1.184	1557559	DISTRACT_END	n/a	n/a	n/a	-999	15	[0, 0, 0]	n/a	0	1	0	n/a	n/a	0.0	0	0	0	FR2	1	R1001P
1967.183	1.334	1558151	REC_START	n/a	n/a	n/a	-999	15	[0, 0, 0]	n/a	0	1	0	n/a	n/a	0.0	0	0	0	FR2	1	R1001P
1968.517	3.111	1558818	REC_WORD	1.334	n/a	SHEET	-999	15	[0, 0, 0]	n/a	0	1	0	n/a	n/a	0.0	0	0	0	FR2	1	R1001P
1971.628	25.567	1560373	REC_WORD	4.445	n/a	STICK	-999	15	[0, 0, 0]	n/a	0	1	0	n/a	n/a	0.0	0	0	0	FR2	1	R1001P
1997.195	1.31	1573156	REC_END	n/a	n/a	n/a	-999	15	[0, 0, 0]	n/a	0	1	0	n/a	n/a	0.0	0	0	0	FR2	1	R1001P
1998.505	0.0	1573811	TRIAL	n/a	n/a	n/a	-999	16	[0, 0, 0]	n/a	0	1	0	n/a	n/a	0.0	0	0	0	FR2	1	R1001P
1998.505	10.0	1573811	COUNTDOWN_START	n/a	n/a	n/a	-999	16	[0, 0, 0]	n/a	0	1	0	n/a	n/a	0.0	0	0	0	FR2	1	R1001P
2008.933	0.007	1579025	COUNTDOWN_END	n/a	n/a	n/a	-999	16	[0, 0, 0]	n/a	0	1	0	n/a	n/a	0.0	0	0	0	FR2	1	R1001P
2008.94	1.6	1579028	ORIENT	n/a	n/a	n/a	-999	16	[0, 0, 0]	n/a	0	1	0	n/a	n/a	0.0	0	0	0	FR2	1	R1001P
2011.162	4.6	1580139	STIM_ON	n/a	n/a	n/a	-999	16	[0, 0, 0]	n/a	1	1	4600	LDA3	LDA4	1000.0	50	230	300	FR2	1	R1001P
2011.374	1.6	1580245	WORD	n/a	wordpools/wordpool_EN.txt	SOUP	1	16	[0, 0, 0]	n/a	1	1	4600	LDA3	LDA4	1000.0	50	230	300	FR2	1	R1001P
2013.941	1.6	1581529	WORD	n/a	wordpools/wordpool_EN.txt	CASH	2	16	[0, 0, 0]	n/a	1	1	4600	LDA3	LDA4	1000.0	50	230	300	FR2	1	R1001P
2016.558	1.6	1582837	WORD	n/a	wordpools/wordpool_EN.txt	PALM	3	16	[0, 0, 0]	n/a	0	1	0	n/a	n/a	0.0	0	0	0	FR2	1	R1001P
2019.142	1.6	1584129	WORD	n/a	wordpools/wordpool_EN.txt	KEY	4	16	[0, 0, 0]	n/a	0	1	0	n/a	n/a	0.0	0	0	0	FR2	1	R1001P
2021.515	4.6	1585315	STIM_ON	n/a	n/a	n/a	-999	16	[0, 0, 0]	n/a	1	1	4600	LDA3	LDA4	1000.0	50	230	300	FR2	1	R1001P
2021.725	1.6	1585420	WORD	n/a	wordpools/wordpool_EN.txt	WEB	5	16	[0, 0, 0]	n/a	1	1	4600	LDA3	LDA4	1000.0	50	230	300	FR2	1	R1001P
2024.11	1.6	1586613	WORD	n/a	wordpools/wordpool_EN.txt	NET	6	16	[0, 0, 0]	n/a	1	1	4600	LDA3	LDA4	1000.0	50	230	300	FR2	1	R1001P
2026.577	1.6	1587846	WORD	n/a	wordpools/wordpool_EN.txt	OAR	7	16	[0, 0, 0]	n/a	0	1	0	n/a	n/a	0.0	0	0	0	FR2	1	R1001P
2028.994	1.6	1589055	WORD	n/a	wordpools/wordpool_EN.txt	MILK	8	16	[0, 0, 0]	n/a	0	1	0	n/a	n/a	0.0	0	0	0	FR2	1	R1001P
2031.348	4.6	1590232	STIM_ON	n/a	n/a	n/a	-999	16	[0, 0, 0]	n/a	1	1	4600	LDA3	LDA4	1000.0	50	230	300	FR2	1	R1001P
2031.561	1.6	1590338	WORD	n/a	wordpools/wordpool_EN.txt	HAWK	9	16	[0, 0, 0]	n/a	1	1	4600	LDA3	LDA4	1000.0	50	230	300	FR2	1	R1001P
2034.178	1.6	1591646	WORD	n/a	wordpools/wordpool_EN.txt	PLANT	10	16	[0, 0, 0]	n/a	1	1	4600	LDA3	LDA4	1000.0	50	230	300	FR2	1	R1001P
2036.778	1.6	1592946	WORD	n/a	wordpools/wordpool_EN.txt	BAT	11	16	[0, 0, 0]	n/a	0	1	0	n/a	n/a	0.0	0	0	0	FR2	1	R1001P
2039.246	1.6	1594180	WORD	n/a	wordpools/wordpool_EN.txt	CAKE	12	16	[0, 0, 0]	n/a	0	1	0	n/a	n/a	0.0	0	0	0	FR2	1	R1001P
2040.863	0.001	1594989	DISTRACT_START	n/a	n/a	n/a	-999	16	[0, 0, 0]	n/a	0	1	0	n/a	n/a	0.0	0	0	0	FR2	1	R1001P
2040.864	0.015	1594989	START	n/a	n/a	n/a	-999	16	[-999, -999, -999]	n/a	0	1	0	n/a	n/a	0.0	0	0	0	FR2	1	R1001P
2040.879	16.554	1594997	PROB	16.522	n/a	n/a	-999	16	[6, 5, 3]	14	0	1	0	n/a	n/a	0.0	0	0	0	FR2	1	R1001P
2057.433	3.672	1603273	PROB	3.672	n/a	n/a	-999	16	[4, 4, 1]	9	0	1	0	n/a	n/a	0.0	0	0	0	FR2	1	R1001P
2061.105	0.012	1605109	STOP	n/a	n/a	n/a	-999	16	[-999, -999, -999]	n/a	0	1	0	n/a	n/a	0.0	0	0	0	FR2	1	R1001P
2061.117	1.217	1605115	DISTRACT_END	n/a	n/a	n/a	-999	16	[0, 0, 0]	n/a	0	1	0	n/a	n/a	0.0	0	0	0	FR2	1	R1001P
2062.334	13.457	1605724	REC_START	n/a	n/a	n/a	-999	16	[0, 0, 0]	n/a	0	1	0	n/a	n/a	0.0	0	0	0	FR2	1	R1001P
2075.791	15.308	1612452	REC_WORD	13.457	n/a	SHEET	-999	16	[0, 0, 0]	n/a	0	1	0	n/a	n/a	0.0	0	0	0	FR2	1	R1001P
2091.099	1.251	1620105	REC_WORD	28.765	n/a	SCHOOL	-999	16	[0, 0, 0]	n/a	0	1	0	n/a	n/a	0.0	0	0	0	FR2	1	R1001P
2092.35	2.59	1620731	REC_END	n/a	n/a	n/a	-999	16	[0, 0, 0]	n/a	0	1	0	n/a	n/a	0.0	0	0	0	FR2	1	R1001P
2094.94	10.0	1622026	COUNTDOWN_START	n/a	n/a	n/a	-999	17	[0, 0, 0]	n/a	0	0	0	n/a	n/a	0.0	0	0	0	FR2	1	R1001P
2094.94	10.428	1622026	TRIAL	n/a	n/a	n/a	-999	17	[0, 0, 0]	n/a	0	0	0	n/a	n/a	0.0	0	0	0	FR2	1	R1001P
2105.368	0.007	1627240	COUNTDOWN_END	n/a	n/a	n/a	-999	17	[0, 0, 0]	n/a	0	0	0	n/a	n/a	0.0	0	0	0	FR2	1	R1001P
2105.375	1.6	1627243	ORIENT	n/a	n/a	n/a	-999	17	[0, 0, 0]	n/a	0	0	0	n/a	n/a	0.0	0	0	0	FR2	1	R1001P
2107.925	1.6	1628518	WORD	n/a	wordpools/wordpool_EN.txt	ROPE	1	17	[0, 0, 0]	n/a	0	0	0	n/a	n/a	0.0	0	0	0	FR2	1	R1001P
2110.526	1.6	1629818	WORD	n/a	wordpools/wordpool_EN.txt	CORD	2	17	[0, 0, 0]	n/a	0	0	0	n/a	n/a	0.0	0	0	0	FR2	1	R1001P
2113.076	1.6	1631093	WORD	n/a	wordpools/wordpool_EN.txt	BEAK	3	17	[0, 0, 0]	n/a	0	0	0	n/a	n/a	0.0	0	0	0	FR2	1	R1001P
2115.544	1.6	1632327	WORD	n/a	wordpools/wordpool_EN.txt	CAT	4	17	[0, 0, 0]	n/a	0	0	0	n/a	n/a	0.0	0	0	0	FR2	1	R1001P
2118.161	1.6	1633636	WORD	n/a	wordpools/wordpool_EN.txt	BOWL	5	17	[0, 0, 0]	n/a	0	0	0	n/a	n/a	0.0	0	0	0	FR2	1	R1001P
2120.644	1.6	1634877	WORD	n/a	wordpools/wordpool_EN.txt	RAIN	6	17	[0, 0, 0]	n/a	0	0	0	n/a	n/a	0.0	0	0	0	FR2	1	R1001P
2123.212	1.6	1636161	WORD	n/a	wordpools/wordpool_EN.txt	MUD	7	17	[0, 0, 0]	n/a	0	0	0	n/a	n/a	0.0	0	0	0	FR2	1	R1001P
2125.694	1.6	1637402	WORD	n/a	wordpools/wordpool_EN.txt	PIN	8	17	[0, 0, 0]	n/a	0	0	0	n/a	n/a	0.0	0	0	0	FR2	1	R1001P
2128.146	1.6	1638628	WORD	n/a	wordpools/wordpool_EN.txt	SPEAR	9	17	[0, 0, 0]	n/a	0	0	0	n/a	n/a	0.0	0	0	0	FR2	1	R1001P
2130.729	1.6	1639919	WORD	n/a	wordpools/wordpool_EN.txt	PHONE	10	17	[0, 0, 0]	n/a	0	0	0	n/a	n/a	0.0	0	0	0	FR2	1	R1001P
2133.214	1.6	1641162	WORD	n/a	wordpools/wordpool_EN.txt	DRUM	11	17	[0, 0, 0]	n/a	0	0	0	n/a	n/a	0.0	0	0	0	FR2	1	R1001P
2135.796	1.6	1642453	WORD	n/a	wordpools/wordpool_EN.txt	CHIN	12	17	[0, 0, 0]	n/a	0	0	0	n/a	n/a	0.0	0	0	0	FR2	1	R1001P
2137.397	0.001	1643253	DISTRACT_START	n/a	n/a	n/a	-999	17	[0, 0, 0]	n/a	0	0	0	n/a	n/a	0.0	0	0	0	FR2	1	R1001P
2137.398	0.016	1643254	START	n/a	n/a	n/a	-999	17	[-999, -999, -999]	n/a	0	0	0	n/a	n/a	0.0	0	0	0	FR2	1	R1001P
2137.414	19.27	1643262	PROB	19.242	n/a	n/a	-999	17	[7, 6, 2]	14	0	0	0	n/a	n/a	0.0	0	0	0	FR2	1	R1001P
2156.684	3.501	1652896	PROB	3.501	n/a	n/a	-999	17	[4, 1, 4]	9	0	0	0	n/a	n/a	0.0	0	0	0	FR2	1	R1001P
2160.185	0.017	1654647	STOP	n/a	n/a	n/a	-999	17	[-999, -999, -999]	n/a	0	0	0	n/a	n/a	0.0	0	0	0	FR2	1	R1001P
2160.202	1.135	1654655	DISTRACT_END	n/a	n/a	n/a	-999	17	[0, 0, 0]	n/a	0	0	0	n/a	n/a	0.0	0	0	0	FR2	1	R1001P
2161.337	9.849	1655223	REC_START	n/a	n/a	n/a	-999	17	[0, 0, 0]	n/a	0	0	0	n/a	n/a	0.0	0	0	0	FR2	1	R1001P
2171.186	0.424	1660147	REC_WORD_VV	9.849	n/a	<>	-999	17	[0, 0, 0]	n/a	0	0	0	n/a	n/a	0.0	0	0	0	FR2	1	R1001P
2171.61	2.875	1660359	REC_WORD	10.273	n/a	CHIN	-999	17	[0, 0, 0]	n/a	0	0	0	n/a	n/a	0.0	0	0	0	FR2	1	R1001P
2174.485	0.835	1661796	REC_WORD	13.148	n/a	CHEEK	-999	17	[0, 0, 0]	n/a	0	0	0	n/a	n/a	0.0	0	0	0	FR2	1	R1001P
2175.32	16.028	1662214	REC_WORD	13.983	n/a	LIP	-999	17	[0, 0, 0]	n/a	0	0	0	n/a	n/a	0.0	0	0	0	FR2	1	R1001P
2191.348	1.477	1670227	REC_END	n/a	n/a	n/a	-999	17	[0, 0, 0]	n/a	0	0	0	n/a	n/a	0.0	0	0	0	FR2	1	R1001P
2192.825	0.0	1670966	TRIAL	n/a	n/a	n/a	-999	18	[0, 0, 0]	n/a	0	1	0	n/a	n/a	0.0	0	0	0	FR2	1	R1001P
2192.825	10.0	1670966	COUNTDOWN_START	n/a	n/a	n/a	-999	18	[0, 0, 0]	n/a	0	1	0	n/a	n/a	0.0	0	0	0	FR2	1	R1001P
2203.253	0.007	1676179	COUNTDOWN_END	n/a	n/a	n/a	-999	18	[0, 0, 0]	n/a	0	1	0	n/a	n/a	0.0	0	0	0	FR2	1	R1001P
2203.26	1.6	1676183	ORIENT	n/a	n/a	n/a	-999	18	[0, 0, 0]	n/a	0	1	0	n/a	n/a	0.0	0	0	0	FR2	1	R1001P
2205.877	1.6	1677491	WORD	n/a	wordpools/wordpool_EN.txt	CART	1	18	[0, 0, 0]	n/a	0	1	0	n/a	n/a	0.0	0	0	0	FR2	1	R1001P
2208.444	1.6	1678775	WORD	n/a	wordpools/wordpool_EN.txt	PEAR	2	18	[0, 0, 0]	n/a	0	1	0	n/a	n/a	0.0	0	0	0	FR2	1	R1001P
2210.727	4.6	1679916	STIM_ON	n/a	n/a	n/a	-999	18	[0, 0, 0]	n/a	1	1	4600	LDA3	LDA4	1000.0	50	230	300	FR2	1	R1001P
2210.945	1.6	1680025	WORD	n/a	wordpools/wordpool_EN.txt	VASE	3	18	[0, 0, 0]	n/a	1	1	4600	LDA3	LDA4	1000.0	50	230	300	FR2	1	R1001P
2213.445	1.6	1681275	WORD	n/a	wordpools/wordpool_EN.txt	AXE	4	18	[0, 0, 0]	n/a	1	1	4600	LDA3	LDA4	1000.0	50	230	300	FR2	1	R1001P
2216.046	1.6	1682576	WORD	n/a	wordpools/wordpool_EN.txt	TREE	5	18	[0, 0, 0]	n/a	0	1	0	n/a	n/a	0.0	0	0	0	FR2	1	R1001P
2218.513	1.6	1683809	WORD	n/a	wordpools/wordpool_EN.txt	DOOR	6	18	[0, 0, 0]	n/a	0	1	0	n/a	n/a	0.0	0	0	0	FR2	1	R1001P
2220.879	4.6	1684992	STIM_ON	n/a	n/a	n/a	-999	18	[0, 0, 0]	n/a	1	1	4600	LDA3	LDA4	1000.0	50	230	300	FR2	1	R1001P
2221.08	1.6	1685092	WORD	n/a	wordpools/wordpool_EN.txt	APE	7	18	[0, 0, 0]	n/a	1	1	4600	LDA3	LDA4	1000.0	50	230	300	FR2	1	R1001P
2223.68	1.6	1686392	WORD	n/a	wordpools/wordpool_EN.txt	BIRD	8	18	[0, 0, 0]	n/a	1	1	4600	LDA3	LDA4	1000.0	50	230	300	FR2	1	R1001P
2226.231	1.6	1687668	WORD	n/a	wordpools/wordpool_EN.txt	LAWN	9	18	[0, 0, 0]	n/a	0	1	0	n/a	n/a	0.0	0	0	0	FR2	1	R1001P
2228.731	1.6	1688918	WORD	n/a	wordpools/wordpool_EN.txt	COIN	10	18	[0, 0, 0]	n/a	0	1	0	n/a	n/a	0.0	0	0	0	FR2	1	R1001P
2231.07	4.6	1690087	STIM_ON	n/a	n/a	n/a	-999	18	[0, 0, 0]	n/a	1	1	4600	LDA3	LDA4	1000.0	50	230	300	FR2	1	R1001P
2231.282	1.6	1690193	WORD	n/a	wordpools/wordpool_EN.txt	OAK	11	18	[0, 0, 0]	n/a	1	1	4600	LDA3	LDA4	1000.0	50	230	300	FR2	1	R1001P
2233.883	1.6	1691494	WORD	n/a	wordpools/wordpool_EN.txt	SWAMP	12	18	[0, 0, 0]	n/a	1	1	4600	LDA3	LDA4	1000.0	50	230	300	FR2	1	R1001P
2235.5	0.0	1692302	DISTRACT_START	n/a	n/a	n/a	-999	18	[0, 0, 0]	n/a	1	1	4600	LDA3	LDA4	1000.0	50	230	300	FR2	1	R1001P
2235.5	0.016	1692302	START	n/a	n/a	n/a	-999	18	[-999, -999, -999]	n/a	0	1	0	n/a	n/a	0.0	0	0	0	FR2	1	R1001P
2235.516	15.786	1692310	PROB	15.758	n/a	n/a	-999	18	[1, 7, 2]	10	0	1	0	n/a	n/a	0.0	0	0	0	FR2	1	R1001P
2251.302	4.979	1700203	PROB	4.979	n/a	n/a	-999	18	[3, 9, 6]	18	0	1	0	n/a	n/a	0.0	0	0	0	FR2	1	R1001P
2256.281	0.006	1702692	STOP	n/a	n/a	n/a	-999	18	[-999, -999, -999]	n/a	0	1	0	n/a	n/a	0.0	0	0	0	FR2	1	R1001P
2256.287	1.084	1702695	DISTRACT_END	n/a	n/a	n/a	-999	18	[0, 0, 0]	n/a	0	1	0	n/a	n/a	0.0	0	0	0	FR2	1	R1001P
2257.371	1.411	1703237	REC_START	n/a	n/a	n/a	-999	18	[0, 0, 0]	n/a	0	1	0	n/a	n/a	0.0	0	0	0	FR2	1	R1001P
2258.782	0.94	1703942	REC_WORD	1.411	n/a	TREE	-999	18	[0, 0, 0]	n/a	0	1	0	n/a	n/a	0.0	0	0	0	FR2	1	R1001P
2259.722	1.048	1704412	REC_WORD	2.351	n/a	BIRD	-999	18	[0, 0, 0]	n/a	0	1	0	n/a	n/a	0.0	0	0	0	FR2	1	R1001P
2260.77	26.613	1704936	REC_WORD	3.399	n/a	LAWN	-999	18	[0, 0, 0]	n/a	0	1	0	n/a	n/a	0.0	0	0	0	FR2	1	R1001P
2287.383	1.16	1718242	REC_END	n/a	n/a	n/a	-999	18	[0, 0, 0]	n/a	0	1	0	n/a	n/a	0.0	0	0	0	FR2	1	R1001P
2288.543	0.0	1718822	TRIAL	n/a	n/a	n/a	-999	19	[0, 0, 0]	n/a	0	1	0	n/a	n/a	0.0	0	0	0	FR2	1	R1001P
2288.543	10.0	1718822	COUNTDOWN_START	n/a	n/a	n/a	-999	19	[0, 0, 0]	n/a	0	1	0	n/a	n/a	0.0	0	0	0	FR2	1	R1001P
2298.971	0.007	1724036	COUNTDOWN_END	n/a	n/a	n/a	-999	19	[0, 0, 0]	n/a	0	1	0	n/a	n/a	0.0	0	0	0	FR2	1	R1001P
2298.978	1.6	1724039	ORIENT	n/a	n/a	n/a	-999	19	[0, 0, 0]	n/a	0	1	0	n/a	n/a	0.0	0	0	0	FR2	1	R1001P
2301.495	1.6	1725298	WORD	n/a	wordpools/wordpool_EN.txt	TOAD	1	19	[0, 0, 0]	n/a	0	1	0	n/a	n/a	0.0	0	0	0	FR2	1	R1001P
2304.062	1.6	1726581	WORD	n/a	wordpools/wordpool_EN.txt	BARN	2	19	[0, 0, 0]	n/a	0	1	0	n/a	n/a	0.0	0	0	0	FR2	1	R1001P
2306.382	4.6	1727741	STIM_ON	n/a	n/a	n/a	-999	19	[0, 0, 0]	n/a	1	1	4600	LDA3	LDA4	1000.0	50	230	300	FR2	1	R1001P
2306.596	1.6	1727848	WORD	n/a	wordpools/wordpool_EN.txt	FAN	3	19	[0, 0, 0]	n/a	1	1	4600	LDA3	LDA4	1000.0	50	230	300	FR2	1	R1001P
2309.163	1.6	1729131	WORD	n/a	wordpools/wordpool_EN.txt	POOL	4	19	[0, 0, 0]	n/a	1	1	4600	LDA3	LDA4	1000.0	50	230	300	FR2	1	R1001P
2311.581	1.6	1730340	WORD	n/a	wordpools/wordpool_EN.txt	GATE	5	19	[0, 0, 0]	n/a	0	1	0	n/a	n/a	0.0	0	0	0	FR2	1	R1001P
2314.031	1.6	1731565	WORD	n/a	wordpools/wordpool_EN.txt	STRING	6	19	[0, 0, 0]	n/a	0	1	0	n/a	n/a	0.0	0	0	0	FR2	1	R1001P
2316.29	4.6	1732695	STIM_ON	n/a	n/a	n/a	-999	19	[0, 0, 0]	n/a	1	1	4600	LDA3	LDA4	1000.0	50	230	300	FR2	1	R1001P
2316.498	1.6	1732799	WORD	n/a	wordpools/wordpool_EN.txt	LAMP	7	19	[0, 0, 0]	n/a	1	1	4600	LDA3	LDA4	1000.0	50	230	300	FR2	1	R1001P
2319.099	1.6	1734099	WORD	n/a	wordpools/wordpool_EN.txt	YARD	8	19	[0, 0, 0]	n/a	1	1	4600	LDA3	LDA4	1000.0	50	230	300	FR2	1	R1001P
2321.698	1.6	1735399	WORD	n/a	wordpools/wordpool_EN.txt	THREAD	9	19	[0, 0, 0]	n/a	0	1	0	n/a	n/a	0.0	0	0	0	FR2	1	R1001P
2324.216	1.6	1736658	WORD	n/a	wordpools/wordpool_EN.txt	ROSE	10	19	[0, 0, 0]	n/a	0	1	0	n/a	n/a	0.0	0	0	0	FR2	1	R1001P
2326.58	4.6	1737839	STIM_ON	n/a	n/a	n/a	-999	19	[0, 0, 0]	n/a	1	1	4600	LDA3	LDA4	1000.0	50	230	300	FR2	1	R1001P
2326.782	1.6	1737940	WORD	n/a	wordpools/wordpool_EN.txt	HILL	11	19	[0, 0, 0]	n/a	1	1	4600	LDA3	LDA4	1000.0	50	230	300	FR2	1	R1001P
2329.284	1.6	1739191	WORD	n/a	wordpools/wordpool_EN.txt	WHALE	12	19	[0, 0, 0]	n/a	1	1	4600	LDA3	LDA4	1000.0	50	230	300	FR2	1	R1001P
2330.901	0.001	1740000	DISTRACT_START	n/a	n/a	n/a	-999	19	[0, 0, 0]	n/a	1	1	4600	LDA3	LDA4	1000.0	50	230	300	FR2	1	R1001P
2330.902	0.015	1740000	START	n/a	n/a	n/a	-999	19	[-999, -999, -999]	n/a	0	1	0	n/a	n/a	0.0	0	0	0	FR2	1	R1001P
2330.917	10.186	1740008	PROB	10.164	n/a	n/a	-999	19	[7, 6, 1]	17	0	1	0	n/a	n/a	0.0	0	0	0	FR2	1	R1001P
2341.103	6.017	1745101	PROB	5.994	n/a	n/a	-999	19	[2, 7, 1]	10	0	1	0	n/a	n/a	0.0	0	0	0	FR2	1	R1001P
2347.12	11.305	1748109	PROB	11.305	n/a	n/a	-999	19	[4, 4, 5]	14	0	1	0	n/a	n/a	0.0	0	0	0	FR2	1	R1001P
2358.425	0.014	1753761	STOP	n/a	n/a	n/a	-999	19	[-999, -999, -999]	n/a	0	1	0	n/a	n/a	0.0	0	0	0	FR2	1	R1001P
2358.439	1.217	1753768	DISTRACT_END	n/a	n/a	n/a	-999	19	[0, 0, 0]	n/a	0	1	0	n/a	n/a	0.0	0	0	0	FR2	1	R1001P
2359.656	1.253	1754377	REC_START	n/a	n/a	n/a	-999	19	[0, 0, 0]	n/a	0	1	0	n/a	n/a	0.0	0	0	0	FR2	1	R1001P
2360.909	0.698	1755003	REC_WORD	1.253	n/a	POOL	-999	19	[0, 0, 0]	n/a	0	1	0	n/a	n/a	0.0	0	0	0	FR2	1	R1001P
2361.607	0.821	1755352	REC_WORD	1.951	n/a	GATE	-999	19	[0, 0, 0]	n/a	0	1	0	n/a	n/a	0.0	0	0	0	FR2	1	R1001P
2362.428	1.067	1755763	REC_WORD	2.772	n/a	YARD	-999	19	[0, 0, 0]	n/a	0	1	0	n/a	n/a	0.0	0	0	0	FR2	1	R1001P
2363.495	26.171	1756296	REC_WORD	3.839	n/a	WHALE	-999	19	[0, 0, 0]	n/a	0	1	0	n/a	n/a	0.0	0	0	0	FR2	1	R1001P
2389.666	1.296	1769381	REC_END	n/a	n/a	n/a	-999	19	[0, 0, 0]	n/a	0	1	0	n/a	n/a	0.0	0	0	0	FR2	1	R1001P
2390.962	0.0	1770029	TRIAL	n/a	n/a	n/a	-999	20	[0, 0, 0]	n/a	0	0	0	n/a	n/a	0.0	0	0	0	FR2	1	R1001P
2390.962	10.0	1770029	COUNTDOWN_START	n/a	n/a	n/a	-999	20	[0, 0, 0]	n/a	0	0	0	n/a	n/a	0.0	0	0	0	FR2	1	R1001P
2401.39	0.007	1775242	COUNTDOWN_END	n/a	n/a	n/a	-999	20	[0, 0, 0]	n/a	0	0	0	n/a	n/a	0.0	0	0	0	FR2	1	R1001P
2401.397	1.6	1775246	ORIENT	n/a	n/a	n/a	-999	20	[0, 0, 0]	n/a	0	0	0	n/a	n/a	0.0	0	0	0	FR2	1	R1001P
2403.864	1.6	1776479	WORD	n/a	wordpools/wordpool_EN.txt	SEAL	1	20	[0, 0, 0]	n/a	0	0	0	n/a	n/a	0.0	0	0	0	FR2	1	R1001P
2406.415	1.6	1777755	WORD	n/a	wordpools/wordpool_EN.txt	WING	2	20	[0, 0, 0]	n/a	0	0	0	n/a	n/a	0.0	0	0	0	FR2	1	R1001P
2408.798	1.6	1778946	WORD	n/a	wordpools/wordpool_EN.txt	BED	3	20	[0, 0, 0]	n/a	0	0	0	n/a	n/a	0.0	0	0	0	FR2	1	R1001P
2411.383	1.6	1780239	WORD	n/a	wordpools/wordpool_EN.txt	PANTS	4	20	[0, 0, 0]	n/a	0	0	0	n/a	n/a	0.0	0	0	0	FR2	1	R1001P
2413.782	1.6	1781438	WORD	n/a	wordpools/wordpool_EN.txt	FOX	5	20	[0, 0, 0]	n/a	0	0	0	n/a	n/a	0.0	0	0	0	FR2	1	R1001P
2416.167	1.6	1782631	WORD	n/a	wordpools/wordpool_EN.txt	FLAME	6	20	[0, 0, 0]	n/a	0	0	0	n/a	n/a	0.0	0	0	0	FR2	1	R1001P
2418.567	1.6	1783830	WORD	n/a	wordpools/wordpool_EN.txt	SHRIMP	7	20	[0, 0, 0]	n/a	0	0	0	n/a	n/a	0.0	0	0	0	FR2	1	R1001P
2421.118	1.6	1785106	WORD	n/a	wordpools/wordpool_EN.txt	CAR	8	20	[0, 0, 0]	n/a	0	0	0	n/a	n/a	0.0	0	0	0	FR2	1	R1001P
2423.585	1.6	1786339	WORD	n/a	wordpools/wordpool_EN.txt	BOMB	9	20	[0, 0, 0]	n/a	0	0	0	n/a	n/a	0.0	0	0	0	FR2	1	R1001P
2426.035	1.6	1787564	WORD	n/a	wordpools/wordpool_EN.txt	STORM	10	20	[0, 0, 0]	n/a	0	0	0	n/a	n/a	0.0	0	0	0	FR2	1	R1001P
2428.453	1.6	1788773	WORD	n/a	wordpools/wordpool_EN.txt	PIPE	11	20	[0, 0, 0]	n/a	0	0	0	n/a	n/a	0.0	0	0	0	FR2	1	R1001P
2430.853	1.6	1789973	WORD	n/a	wordpools/wordpool_EN.txt	WORLD	12	20	[0, 0, 0]	n/a	0	0	0	n/a	n/a	0.0	0	0	0	FR2	1	R1001P
2432.47	0.001	1790782	DISTRACT_START	n/a	n/a	n/a	-999	20	[0, 0, 0]	n/a	0	0	0	n/a	n/a	0.0	0	0	0	FR2	1	R1001P
2432.471	0.016	1790782	START	n/a	n/a	n/a	-999	20	[-999, -999, -999]	n/a	0	0	0	n/a	n/a	0.0	0	0	0	FR2	1	R1001P
2432.487	10.051	1790790	PROB	10.018	n/a	n/a	-999	20	[3, 4, 3]	10	0	0	0	n/a	n/a	0.0	0	0	0	FR2	1	R1001P
2442.538	4.851	1795815	PROB	4.815	n/a	n/a	-999	20	[2, 6, 9]	17	0	0	0	n/a	n/a	0.0	0	0	0	FR2	1	R1001P
2447.389	4.551	1798241	PROB	4.525	n/a	n/a	-999	20	[1, 5, 9]	15	0	0	0	n/a	n/a	0.0	0	0	0	FR2	1	R1001P
2451.94	4.981	1800516	PROB	4.981	n/a	n/a	-999	20	[2, 2, 1]	5	0	0	0	n/a	n/a	0.0	0	0	0	FR2	1	R1001P
2456.921	0.003	1803006	STOP	n/a	n/a	n/a	-999	20	[-999, -999, -999]	n/a	0	0	0	n/a	n/a	0.0	0	0	0	FR2	1	R1001P
2456.924	1.085	1803008	DISTRACT_END	n/a	n/a	n/a	-999	20	[0, 0, 0]	n/a	0	0	0	n/a	n/a	0.0	0	0	0	FR2	1	R1001P
2458.009	4.361	1803550	REC_START	n/a	n/a	n/a	-999	20	[0, 0, 0]	n/a	0	0	0	n/a	n/a	0.0	0	0	0	FR2	1	R1001P
2462.37	1.382	1805731	REC_WORD	4.361	n/a	CAR	-999	20	[0, 0, 0]	n/a	0	0	0	n/a	n/a	0.0	0	0	0	FR2	1	R1001P
2463.752	18.954	1806422	REC_WORD	5.743	n/a	WHEEL	-999	20	[0, 0, 0]	n/a	0	0	0	n/a	n/a	0.0	0	0	0	FR2	1	R1001P
2482.706	5.314	1815898	REC_WORD	24.697	n/a	SHRIMP	-999	20	[0, 0, 0]	n/a	0	0	0	n/a	n/a	0.0	0	0	0	FR2	1	R1001P
2488.02	1.461	1818555	REC_END	n/a	n/a	n/a	-999	20	[0, 0, 0]	n/a	0	0	0	n/a	n/a	0.0	0	0	0	FR2	1	R1001P
2489.481	0.0	1819286	TRIAL	n/a	n/a	n/a	-999	21	[0, 0, 0]	n/a	0	1	0	n/a	n/a	0.0	0	0	0	FR2	1	R1001P
2489.481	10.0	1819286	COUNTDOWN_START	n/a	n/a	n/a	-999	21	[0, 0, 0]	n/a	0	1	0	n/a	n/a	0.0	0	0	0	FR2	1	R1001P
2499.909	0.007	1824499	COUNTDOWN_END	n/a	n/a	n/a	-999	21	[0, 0, 0]	n/a	0	1	0	n/a	n/a	0.0	0	0	0	FR2	1	R1001P
2499.916	1.6	1824503	ORIENT	n/a	n/a	n/a	-999	21	[0, 0, 0]	n/a	0	1	0	n/a	n/a	0.0	0	0	0	FR2	1	R1001P
2502.284	4.6	1825687	STIM_ON	n/a	n/a	n/a	-999	21	[0, 0, 0]	n/a	1	1	4600	LDA3	LDA4	1000.0	50	230	300	FR2	1	R1001P
2502.5	1.6	1825795	WORD	n/a	wordpools/wordpool_EN.txt	BAND	1	21	[0, 0, 0]	n/a	1	1	4600	LDA3	LDA4	1000.0	50	230	300	FR2	1	R1001P
2504.934	1.6	1827012	WORD	n/a	wordpools/wordpool_EN.txt	TOOTH	2	21	[0, 0, 0]	n/a	1	1	4600	LDA3	LDA4	1000.0	50	230	300	FR2	1	R1001P
2507.367	1.6	1828228	WORD	n/a	wordpools/wordpool_EN.txt	ZOO	3	21	[0, 0, 0]	n/a	0	1	0	n/a	n/a	0.0	0	0	0	FR2	1	R1001P
2509.767	1.6	1829428	WORD	n/a	wordpools/wordpool_EN.txt	CHIEF	4	21	[0, 0, 0]	n/a	0	1	0	n/a	n/a	0.0	0	0	0	FR2	1	R1001P
2512.145	4.6	1830617	STIM_ON	n/a	n/a	n/a	-999	21	[0, 0, 0]	n/a	1	1	4600	LDA3	LDA4	1000.0	50	230	300	FR2	1	R1001P
2512.352	1.6	1830720	WORD	n/a	wordpools/wordpool_EN.txt	FENCE	5	21	[0, 0, 0]	n/a	1	1	4600	LDA3	LDA4	1000.0	50	230	300	FR2	1	R1001P
2514.952	1.6	1832020	WORD	n/a	wordpools/wordpool_EN.txt	BALL	6	21	[0, 0, 0]	n/a	1	1	4600	LDA3	LDA4	1000.0	50	230	300	FR2	1	R1001P
2517.369	1.6	1833229	WORD	n/a	wordpools/wordpool_EN.txt	FUR	7	21	[0, 0, 0]	n/a	0	1	0	n/a	n/a	0.0	0	0	0	FR2	1	R1001P
2519.886	1.6	1834487	WORD	n/a	wordpools/wordpool_EN.txt	ARK	8	21	[0, 0, 0]	n/a	0	1	0	n/a	n/a	0.0	0	0	0	FR2	1	R1001P
2522.196	4.6	1835642	STIM_ON	n/a	n/a	n/a	-999	21	[0, 0, 0]	n/a	1	1	4600	LDA3	LDA4	1000.0	50	230	300	FR2	1	R1001P
2522.403	1.6	1835746	WORD	n/a	wordpools/wordpool_EN.txt	INK	9	21	[0, 0, 0]	n/a	1	1	4600	LDA3	LDA4	1000.0	50	230	300	FR2	1	R1001P
2525.021	1.6	1837055	WORD	n/a	wordpools/wordpool_EN.txt	MOTH	10	21	[0, 0, 0]	n/a	1	1	4600	LDA3	LDA4	1000.0	50	230	300	FR2	1	R1001P
2527.454	1.6	1838271	WORD	n/a	wordpools/wordpool_EN.txt	BADGE	11	21	[0, 0, 0]	n/a	0	1	0	n/a	n/a	0.0	0	0	0	FR2	1	R1001P
2529.938	1.6	1839513	WORD	n/a	wordpools/wordpool_EN.txt	SWORD	12	21	[0, 0, 0]	n/a	0	1	0	n/a	n/a	0.0	0	0	0	FR2	1	R1001P
2531.555	0.001	1840321	DISTRACT_START	n/a	n/a	n/a	-999	21	[0, 0, 0]	n/a	0	1	0	n/a	n/a	0.0	0	0	0	FR2	1	R1001P
2531.556	0.016	1840322	START	n/a	n/a	n/a	-999	21	[-999, -999, -999]	n/a	0	1	0	n/a	n/a	0.0	0	0	0	FR2	1	R1001P
2531.572	16.72	1840330	PROB	16.693	n/a	n/a	-999	21	[2, 5, 4]	11	0	1	0	n/a	n/a	0.0	0	0	0	FR2	1	R1001P
2548.292	5.702	1848689	PROB	5.702	n/a	n/a	-999	21	[6, 2, 6]	14	0	1	0	n/a	n/a	0.0	0	0	0	FR2	1	R1001P
2553.994	0.015	1851540	STOP	n/a	n/a	n/a	-999	21	[-999, -999, -999]	n/a	0	1	0	n/a	n/a	0.0	0	0	0	FR2	1	R1001P
2554.009	1.185	1851548	DISTRACT_END	n/a	n/a	n/a	-999	21	[0, 0, 0]	n/a	0	1	0	n/a	n/a	0.0	0	0	0	FR2	1	R1001P
2555.194	2.094	1852140	REC_START	n/a	n/a	n/a	-999	21	[0, 0, 0]	n/a	0	1	0	n/a	n/a	0.0	0	0	0	FR2	1	R1001P
2557.288	0.215	1853187	REC_WORD_VV	2.094	n/a	<>	-999	21	[0, 0, 0]	n/a	0	1	0	n/a	n/a	0.0	0	0	0	FR2	1	R1001P
2557.503	9.221	1853295	REC_WORD	2.309	n/a	BALL	-999	21	[0, 0, 0]	n/a	0	1	0	n/a	n/a	0.0	0	0	0	FR2	1	R1001P
2566.724	0.608	1857905	REC_WORD	11.53	n/a	BALL	-999	21	[0, 0, 0]	n/a	0	1	0	n/a	n/a	0.0	0	0	0	FR2	1	R1001P
2567.332	9.444	1858209	REC_WORD	12.138	n/a	FUR	-999	21	[0, 0, 0]	n/a	0	1	0	n/a	n/a	0.0	0	0	0	FR2	1	R1001P
2576.776	6.846	1862931	REC_WORD	21.582	n/a	CAR	-999	21	[0, 0, 0]	n/a	0	1	0	n/a	n/a	0.0	0	0	0	FR2	1	R1001P
2583.622	1.584	1866353	REC_WORD	28.428	n/a	INK	-999	21	[0, 0, 0]	n/a	0	1	0	n/a	n/a	0.0	0	0	0	FR2	1	R1001P
2585.206	1.726	1867145	REC_END	n/a	n/a	n/a	-999	21	[0, 0, 0]	n/a	0	1	0	n/a	n/a	0.0	0	0	0	FR2	1	R1001P
2586.932	10.0	1868008	COUNTDOWN_START	n/a	n/a	n/a	-999	22	[0, 0, 0]	n/a	0	1	0	n/a	n/a	0.0	0	0	0	FR2	1	R1001P
2586.933	10.427	1868009	TRIAL	n/a	n/a	n/a	-999	22	[0, 0, 0]	n/a	0	1	0	n/a	n/a	0.0	0	0	0	FR2	1	R1001P
2597.36	0.008	1873222	COUNTDOWN_END	n/a	n/a	n/a	-999	22	[0, 0, 0]	n/a	0	1	0	n/a	n/a	0.0	0	0	0	FR2	1	R1001P
2597.368	1.6	1873226	ORIENT	n/a	n/a	n/a	-999	22	[0, 0, 0]	n/a	0	1	0	n/a	n/a	0.0	0	0	0	FR2	1	R1001P
2599.985	1.6	1874534	WORD	n/a	wordpools/wordpool_EN.txt	BEACH	1	22	[0, 0, 0]	n/a	0	1	0	n/a	n/a	0.0	0	0	0	FR2	1	R1001P
2602.435	1.6	1875759	WORD	n/a	wordpools/wordpool_EN.txt	ROOF	2	22	[0, 0, 0]	n/a	0	1	0	n/a	n/a	0.0	0	0	0	FR2	1	R1001P
2604.722	4.6	1876903	STIM_ON	n/a	n/a	n/a	-999	22	[0, 0, 0]	n/a	1	1	4600	LDA3	LDA4	1000.0	50	230	300	FR2	1	R1001P
2604.936	1.6	1877010	WORD	n/a	wordpools/wordpool_EN.txt	VEST	3	22	[0, 0, 0]	n/a	1	1	4600	LDA3	LDA4	1000.0	50	230	300	FR2	1	R1001P
2607.42	1.6	1878252	WORD	n/a	wordpools/wordpool_EN.txt	SPARK	4	22	[0, 0, 0]	n/a	1	1	4600	LDA3	LDA4	1000.0	50	230	300	FR2	1	R1001P
2609.887	1.6	1879485	WORD	n/a	wordpools/wordpool_EN.txt	BOX	5	22	[0, 0, 0]	n/a	0	1	0	n/a	n/a	0.0	0	0	0	FR2	1	R1001P
2612.454	1.6	1880769	WORD	n/a	wordpools/wordpool_EN.txt	PARK	6	22	[0, 0, 0]	n/a	0	1	0	n/a	n/a	0.0	0	0	0	FR2	1	R1001P
2614.669	4.6	1881876	STIM_ON	n/a	n/a	n/a	-999	22	[0, 0, 0]	n/a	1	1	4600	LDA3	LDA4	1000.0	50	230	300	FR2	1	R1001P
2614.871	1.6	1881977	WORD	n/a	wordpools/wordpool_EN.txt	GEESE	7	22	[0, 0, 0]	n/a	1	1	4600	LDA3	LDA4	1000.0	50	230	300	FR2	1	R1001P
2617.355	1.6	1883219	WORD	n/a	wordpools/wordpool_EN.txt	PEA	8	22	[0, 0, 0]	n/a	1	1	4600	LDA3	LDA4	1000.0	50	230	300	FR2	1	R1001P
2619.822	1.6	1884452	WORD	n/a	wordpools/wordpool_EN.txt	MAT	9	22	[0, 0, 0]	n/a	0	1	0	n/a	n/a	0.0	0	0	0	FR2	1	R1001P
2622.256	1.6	1885669	WORD	n/a	wordpools/wordpool_EN.txt	SKI	10	22	[0, 0, 0]	n/a	0	1	0	n/a	n/a	0.0	0	0	0	FR2	1	R1001P
2624.673	4.6	1886878	STIM_ON	n/a	n/a	n/a	-999	22	[0, 0, 0]	n/a	1	1	4600	LDA3	LDA4	1000.0	50	230	300	FR2	1	R1001P
2624.89	1.6	1886986	WORD	n/a	wordpools/wordpool_EN.txt	STONE	11	22	[0, 0, 0]	n/a	1	1	4600	LDA3	LDA4	1000.0	50	230	300	FR2	1	R1001P
2627.273	1.6	1888178	WORD	n/a	wordpools/wordpool_EN.txt	MOLE	12	22	[0, 0, 0]	n/a	1	1	4600	LDA3	LDA4	1000.0	50	230	300	FR2	1	R1001P
2628.89	0.001	1888986	DISTRACT_START	n/a	n/a	n/a	-999	22	[0, 0, 0]	n/a	1	1	4600	LDA3	LDA4	1000.0	50	230	300	FR2	1	R1001P
2628.891	0.016	1888987	START	n/a	n/a	n/a	-999	22	[-999, -999, -999]	n/a	0	1	0	n/a	n/a	0.0	0	0	0	FR2	1	R1001P
2628.907	10.385	1888995	PROB	10.35	n/a	n/a	-999	22	[9, 3, 1]	13	0	1	0	n/a	n/a	0.0	0	0	0	FR2	1	R1001P
2639.292	16.325	1894187	PROB	16.325	n/a	n/a	-999	22	[6, 7, 6]	19	0	1	0	n/a	n/a	0.0	0	0	0	FR2	1	R1001P
2655.617	0.011	1902349	STOP	n/a	n/a	n/a	-999	22	[-999, -999, -999]	n/a	0	1	0	n/a	n/a	0.0	0	0	0	FR2	1	R1001P
2655.628	1.15	1902354	DISTRACT_END	n/a	n/a	n/a	-999	22	[0, 0, 0]	n/a	0	1	0	n/a	n/a	0.0	0	0	0	FR2	1	R1001P
2656.778	30.016	1902929	REC_START	n/a	n/a	n/a	-999	22	[0, 0, 0]	n/a	0	1	0	n/a	n/a	0.0	0	0	0	FR2	1	R1001P
2686.794	0.001	1917937	REC_END	n/a	n/a	n/a	-999	22	[0, 0, 0]	n/a	0	1	0	n/a	n/a	0.0	0	0	0	FR2	1	R1001P
2686.795	1.656	1917937	REC_WORD_VV	30.017	n/a	<>	-999	22	[0, 0, 0]	n/a	0	1	0	n/a	n/a	0.0	0	0	0	FR2	1	R1001P
2688.451	10.0	1918765	COUNTDOWN_START	n/a	n/a	n/a	-999	23	[0, 0, 0]	n/a	0	1	0	n/a	n/a	0.0	0	0	0	FR2	1	R1001P
2688.452	10.427	1918766	TRIAL	n/a	n/a	n/a	-999	23	[0, 0, 0]	n/a	0	1	0	n/a	n/a	0.0	0	0	0	FR2	1	R1001P
2698.879	0.008	1923979	COUNTDOWN_END	n/a	n/a	n/a	-999	23	[0, 0, 0]	n/a	0	1	0	n/a	n/a	0.0	0	0	0	FR2	1	R1001P
2698.887	1.6	1923983	ORIENT	n/a	n/a	n/a	-999	23	[0, 0, 0]	n/a	0	1	0	n/a	n/a	0.0	0	0	0	FR2	1	R1001P
2701.297	4.6	1925188	STIM_ON	n/a	n/a	n/a	-999	23	[0, 0, 0]	n/a	1	1	4600	LDA3	LDA4	1000.0	50	230	300	FR2	1	R1001P
2701.504	1.6	1925291	WORD	n/a	wordpools/wordpool_EN.txt	OWL	1	23	[0, 0, 0]	n/a	1	1	4600	LDA3	LDA4	1000.0	50	230	300	FR2	1	R1001P
2704.071	1.6	1926575	WORD	n/a	wordpools/wordpool_EN.txt	SINK	2	23	[0, 0, 0]	n/a	1	1	4600	LDA3	LDA4	1000.0	50	230	300	FR2	1	R1001P
2706.488	1.6	1927783	WORD	n/a	wordpools/wordpool_EN.txt	BENCH	3	23	[0, 0, 0]	n/a	0	1	0	n/a	n/a	0.0	0	0	0	FR2	1	R1001P
2709.072	1.6	1929075	WORD	n/a	wordpools/wordpool_EN.txt	NEST	4	23	[0, 0, 0]	n/a	0	1	0	n/a	n/a	0.0	0	0	0	FR2	1	R1001P
2711.307	4.6	1930192	STIM_ON	n/a	n/a	n/a	-999	23	[0, 0, 0]	n/a	1	1	4600	LDA3	LDA4	1000.0	50	230	300	FR2	1	R1001P
2711.522	1.6	1930300	WORD	n/a	wordpools/wordpool_EN.txt	TEA	5	23	[0, 0, 0]	n/a	1	1	4600	LDA3	LDA4	1000.0	50	230	300	FR2	1	R1001P
2713.906	1.6	1931492	WORD	n/a	wordpools/wordpool_EN.txt	BOAT	6	23	[0, 0, 0]	n/a	1	1	4600	LDA3	LDA4	1000.0	50	230	300	FR2	1	R1001P
2716.44	1.6	1932759	WORD	n/a	wordpools/wordpool_EN.txt	ANT	7	23	[0, 0, 0]	n/a	0	1	0	n/a	n/a	0.0	0	0	0	FR2	1	R1001P
2718.891	1.6	1933984	WORD	n/a	wordpools/wordpool_EN.txt	ELF	8	23	[0, 0, 0]	n/a	0	1	0	n/a	n/a	0.0	0	0	0	FR2	1	R1001P
2721.114	4.6	1935096	STIM_ON	n/a	n/a	n/a	-999	23	[0, 0, 0]	n/a	1	1	4600	LDA3	LDA4	1000.0	50	230	300	FR2	1	R1001P
2721.324	1.6	1935201	WORD	n/a	wordpools/wordpool_EN.txt	WAVE	9	23	[0, 0, 0]	n/a	1	1	4600	LDA3	LDA4	1000.0	50	230	300	FR2	1	R1001P
2723.724	1.6	1936401	WORD	n/a	wordpools/wordpool_EN.txt	NOSE	10	23	[0, 0, 0]	n/a	1	1	4600	LDA3	LDA4	1000.0	50	230	300	FR2	1	R1001P
2726.225	1.6	1937651	WORD	n/a	wordpools/wordpool_EN.txt	TRASH	11	23	[0, 0, 0]	n/a	0	1	0	n/a	n/a	0.0	0	0	0	FR2	1	R1001P
2728.741	1.6	1938909	WORD	n/a	wordpools/wordpool_EN.txt	FOG	12	23	[0, 0, 0]	n/a	0	1	0	n/a	n/a	0.0	0	0	0	FR2	1	R1001P
2730.342	0.001	1939709	DISTRACT_START	n/a	n/a	n/a	-999	23	[0, 0, 0]	n/a	0	1	0	n/a	n/a	0.0	0	0	0	FR2	1	R1001P
2730.343	0.016	1939710	START	n/a	n/a	n/a	-999	23	[-999, -999, -999]	n/a	0	1	0	n/a	n/a	0.0	0	0	0	FR2	1	R1001P
2730.359	10.136	1939718	PROB	10.106	n/a	n/a	-999	23	[5, 2, 7]	14	0	1	0	n/a	n/a	0.0	0	0	0	FR2	1	R1001P
2740.495	12.273	1944786	PROB	12.273	n/a	n/a	-999	23	[9, 6, 3]	18	0	1	0	n/a	n/a	0.0	0	0	0	FR2	1	R1001P
2752.768	0.011	1950922	STOP	n/a	n/a	n/a	-999	23	[-999, -999, -999]	n/a	0	1	0	n/a	n/a	0.0	0	0	0	FR2	1	R1001P
2752.779	1.186	1950927	DISTRACT_END	n/a	n/a	n/a	-999	23	[0, 0, 0]	n/a	0	1	0	n/a	n/a	0.0	0	0	0	FR2	1	R1001P
2753.965	1.433	1951520	REC_START	n/a	n/a	n/a	-999	23	[0, 0, 0]	n/a	0	1	0	n/a	n/a	0.0	0	0	0	FR2	1	R1001P
2755.398	25.836	1952237	REC_WORD	1.433	n/a	TEA	-999	23	[0, 0, 0]	n/a	0	1	0	n/a	n/a	0.0	0	0	0	FR2	1	R1001P
2781.234	0.573	1965154	REC_WORD	27.269	n/a	BOAT	-999	23	[0, 0, 0]	n/a	0	1	0	n/a	n/a	0.0	0	0	0	FR2	1	R1001P
2781.807	2.17	1965441	REC_WORD	27.842	n/a	CAR	-999	23	[0, 0, 0]	n/a	0	1	0	n/a	n/a	0.0	0	0	0	FR2	1	R1001P
2783.977	1.893	1966525	REC_END	n/a	n/a	n/a	-999	23	[0, 0, 0]	n/a	0	1	0	n/a	n/a	0.0	0	0	0	FR2	1	R1001P
2785.87	0.0	1967472	TRIAL	n/a	n/a	n/a	-999	24	[0, 0, 0]	n/a	0	1	0	n/a	n/a	0.0	0	0	0	FR2	1	R1001P
2785.87	10.0	1967472	COUNTDOWN_START	n/a	n/a	n/a	-999	24	[0, 0, 0]	n/a	0	1	0	n/a	n/a	0.0	0	0	0	FR2	1	R1001P
2796.298	0.007	1972686	COUNTDOWN_END	n/a	n/a	n/a	-999	24	[0, 0, 0]	n/a	0	1	0	n/a	n/a	0.0	0	0	0	FR2	1	R1001P
2796.305	1.6	1972689	ORIENT	n/a	n/a	n/a	-999	24	[0, 0, 0]	n/a	0	1	0	n/a	n/a	0.0	0	0	0	FR2	1	R1001P
2798.705	1.6	1973889	WORD	n/a	wordpools/wordpool_EN.txt	SKUNK	1	24	[0, 0, 0]	n/a	0	1	0	n/a	n/a	0.0	0	0	0	FR2	1	R1001P
2801.206	1.6	1975139	WORD	n/a	wordpools/wordpool_EN.txt	SHIP	2	24	[0, 0, 0]	n/a	0	1	0	n/a	n/a	0.0	0	0	0	FR2	1	R1001P
2803.4	4.6	1976236	STIM_ON	n/a	n/a	n/a	-999	24	[0, 0, 0]	n/a	1	1	4600	LDA3	LDA4	1000.0	50	230	300	FR2	1	R1001P
2803.607	1.6	1976340	WORD	n/a	wordpools/wordpool_EN.txt	BREAD	3	24	[0, 0, 0]	n/a	1	1	4600	LDA3	LDA4	1000.0	50	230	300	FR2	1	R1001P
2806.19	1.6	1977631	WORD	n/a	wordpools/wordpool_EN.txt	BUSH	4	24	[0, 0, 0]	n/a	1	1	4600	LDA3	LDA4	1000.0	50	230	300	FR2	1	R1001P
2808.64	1.6	1978856	WORD	n/a	wordpools/wordpool_EN.txt	CLOUD	5	24	[0, 0, 0]	n/a	0	1	0	n/a	n/a	0.0	0	0	0	FR2	1	R1001P
2811.225	1.6	1980149	WORD	n/a	wordpools/wordpool_EN.txt	ROAD	6	24	[0, 0, 0]	n/a	0	1	0	n/a	n/a	0.0	0	0	0	FR2	1	R1001P
2813.449	4.6	1981261	STIM_ON	n/a	n/a	n/a	-999	24	[0, 0, 0]	n/a	1	1	4600	LDA3	LDA4	1000.0	50	230	300	FR2	1	R1001P
2813.657	1.6	1981365	WORD	n/a	wordpools/wordpool_EN.txt	SLIME	7	24	[0, 0, 0]	n/a	1	1	4600	LDA3	LDA4	1000.0	50	230	300	FR2	1	R1001P
2816.225	1.6	1982649	WORD	n/a	wordpools/wordpool_EN.txt	LAMB	8	24	[0, 0, 0]	n/a	1	1	4600	LDA3	LDA4	1000.0	50	230	300	FR2	1	R1001P
2818.642	1.6	1983857	WORD	n/a	wordpools/wordpool_EN.txt	HEART	9	24	[0, 0, 0]	n/a	0	1	0	n/a	n/a	0.0	0	0	0	FR2	1	R1001P
2821.026	1.6	1985049	WORD	n/a	wordpools/wordpool_EN.txt	BRIDGE	10	24	[0, 0, 0]	n/a	0	1	0	n/a	n/a	0.0	0	0	0	FR2	1	R1001P
2823.394	4.6	1986233	STIM_ON	n/a	n/a	n/a	-999	24	[0, 0, 0]	n/a	1	1	4600	LDA3	LDA4	1000.0	50	230	300	FR2	1	R1001P
2823.61	1.6	1986341	WORD	n/a	wordpools/wordpool_EN.txt	LEAF	11	24	[0, 0, 0]	n/a	1	1	4600	LDA3	LDA4	1000.0	50	230	300	FR2	1	R1001P
2826.194	1.6	1987633	WORD	n/a	wordpools/wordpool_EN.txt	PURSE	12	24	[0, 0, 0]	n/a	1	1	4600	LDA3	LDA4	1000.0	50	230	300	FR2	1	R1001P
2827.81	0.002	1988441	DISTRACT_START	n/a	n/a	n/a	-999	24	[0, 0, 0]	n/a	1	1	4600	LDA3	LDA4	1000.0	50	230	300	FR2	1	R1001P
2827.812	0.016	1988442	START	n/a	n/a	n/a	-999	24	[-999, -999, -999]	n/a	0	1	0	n/a	n/a	0.0	0	0	0	FR2	1	R1001P
2827.828	10.002	1988450	PROB	9.98	n/a	n/a	-999	24	[4, 3, 6]	13	0	1	0	n/a	n/a	0.0	0	0	0	FR2	1	R1001P
2837.83	3.234	1993450	PROB	3.203	n/a	n/a	-999	24	[2, 8, 7]	17	0	1	0	n/a	n/a	0.0	0	0	0	FR2	1	R1001P
2841.064	2.783	1995067	PROB	2.753	n/a	n/a	-999	24	[5, 5, 5]	15	0	1	0	n/a	n/a	0.0	0	0	0	FR2	1	R1001P
2843.847	4.69	1996459	PROB	4.69	n/a	n/a	-999	24	[6, 1, 7]	14	0	1	0	n/a	n/a	0.0	0	0	0	FR2	1	R1001P
2848.537	0.011	1998804	STOP	n/a	n/a	n/a	-999	24	[-999, -999, -999]	n/a	0	1	0	n/a	n/a	0.0	0	0	0	FR2	1	R1001P
2848.548	1.084	1998809	DISTRACT_END	n/a	n/a	n/a	-999	24	[0, 0, 0]	n/a	0	1	0	n/a	n/a	0.0	0	0	0	FR2	1	R1001P
2849.632	1.861	1999351	REC_START	n/a	n/a	n/a	-999	24	[0, 0, 0]	n/a	0	1	0	n/a	n/a	0.0	0	0	0	FR2	1	R1001P
2851.493	0.455	2000282	REC_WORD_VV	1.861	n/a	<>	-999	24	[0, 0, 0]	n/a	0	1	0	n/a	n/a	0.0	0	0	0	FR2	1	R1001P
2851.948	0.876	2000509	REC_WORD	2.316	n/a	BRIDGE	-999	24	[0, 0, 0]	n/a	0	1	0	n/a	n/a	0.0	0	0	0	FR2	1	R1001P
2852.824	11.692	2000947	REC_WORD	3.192	n/a	LEAF	-999	24	[0, 0, 0]	n/a	0	1	0	n/a	n/a	0.0	0	0	0	FR2	1	R1001P
2864.516	1.474	2006793	REC_WORD	14.884	n/a	SKY	-999	24	[0, 0, 0]	n/a	0	1	0	n/a	n/a	0.0	0	0	0	FR2	1	R1001P
2865.99	13.653	2007530	REC_WORD	16.358	n/a	SNAIL	-999	24	[0, 0, 0]	n/a	0	1	0	n/a	n/a	0.0	0	0	0	FR2	1	R1001P
2879.643	1.445	2014356	REC_END	n/a	n/a	n/a	-999	24	[0, 0, 0]	n/a	0	1	0	n/a	n/a	0.0	0	0	0	FR2	1	R1001P
2881.088	0.0	2015078	TRIAL	n/a	n/a	n/a	-999	25	[0, 0, 0]	n/a	0	1	0	n/a	n/a	0.0	0	0	0	FR2	1	R1001P
2881.088	10.0	2015078	COUNTDOWN_START	n/a	n/a	n/a	-999	25	[0, 0, 0]	n/a	0	1	0	n/a	n/a	0.0	0	0	0	FR2	1	R1001P
2891.516	0.007	2020292	COUNTDOWN_END	n/a	n/a	n/a	-999	25	[0, 0, 0]	n/a	0	1	0	n/a	n/a	0.0	0	0	0	FR2	1	R1001P
2891.523	1.6	2020296	ORIENT	n/a	n/a	n/a	-999	25	[0, 0, 0]	n/a	0	1	0	n/a	n/a	0.0	0	0	0	FR2	1	R1001P
2893.716	4.6	2021392	STIM_ON	n/a	n/a	n/a	-999	25	[0, 0, 0]	n/a	1	1	4600	LDA3	LDA4	1000.0	50	230	300	FR2	1	R1001P
2893.924	1.6	2021496	WORD	n/a	wordpools/wordpool_EN.txt	TENT	1	25	[0, 0, 0]	n/a	1	1	4600	LDA3	LDA4	1000.0	50	230	300	FR2	1	R1001P
2896.491	1.6	2022779	WORD	n/a	wordpools/wordpool_EN.txt	SMILE	2	25	[0, 0, 0]	n/a	1	1	4600	LDA3	LDA4	1000.0	50	230	300	FR2	1	R1001P
2899.091	1.6	2024079	WORD	n/a	wordpools/wordpool_EN.txt	HEN	3	25	[0, 0, 0]	n/a	0	1	0	n/a	n/a	0.0	0	0	0	FR2	1	R1001P
2901.508	1.6	2025288	WORD	n/a	wordpools/wordpool_EN.txt	LEG	4	25	[0, 0, 0]	n/a	0	1	0	n/a	n/a	0.0	0	0	0	FR2	1	R1001P
2903.869	4.6	2026468	STIM_ON	n/a	n/a	n/a	-999	25	[0, 0, 0]	n/a	1	1	4600	LDA3	LDA4	1000.0	50	230	300	FR2	1	R1001P
2904.075	1.6	2026571	WORD	n/a	wordpools/wordpool_EN.txt	FACE	5	25	[0, 0, 0]	n/a	1	1	4600	LDA3	LDA4	1000.0	50	230	300	FR2	1	R1001P
2906.576	1.6	2027822	WORD	n/a	wordpools/wordpool_EN.txt	JET	6	25	[0, 0, 0]	n/a	1	1	4600	LDA3	LDA4	1000.0	50	230	300	FR2	1	R1001P
2909.193	1.6	2029130	WORD	n/a	wordpools/wordpool_EN.txt	BRICK	7	25	[0, 0, 0]	n/a	0	1	0	n/a	n/a	0.0	0	0	0	FR2	1	R1001P
2911.577	1.6	2030322	WORD	n/a	wordpools/wordpool_EN.txt	GRASS	8	25	[0, 0, 0]	n/a	0	1	0	n/a	n/a	0.0	0	0	0	FR2	1	R1001P
2913.911	4.6	2031489	STIM_ON	n/a	n/a	n/a	-999	25	[0, 0, 0]	n/a	1	1	4600	LDA3	LDA4	1000.0	50	230	300	FR2	1	R1001P
2914.127	1.6	2031597	WORD	n/a	wordpools/wordpool_EN.txt	ARM	9	25	[0, 0, 0]	n/a	1	1	4600	LDA3	LDA4	1000.0	50	230	300	FR2	1	R1001P
2916.627	1.6	2032847	WORD	n/a	wordpools/wordpool_EN.txt	STOOL	10	25	[0, 0, 0]	n/a	1	1	4600	LDA3	LDA4	1000.0	50	230	300	FR2	1	R1001P
2919.078	1.6	2034072	WORD	n/a	wordpools/wordpool_EN.txt	FLUTE	11	25	[0, 0, 0]	n/a	0	1	0	n/a	n/a	0.0	0	0	0	FR2	1	R1001P
2921.545	1.6	2035306	WORD	n/a	wordpools/wordpool_EN.txt	FILM	12	25	[0, 0, 0]	n/a	0	1	0	n/a	n/a	0.0	0	0	0	FR2	1	R1001P
2923.162	0.001	2036114	DISTRACT_START	n/a	n/a	n/a	-999	25	[0, 0, 0]	n/a	0	1	0	n/a	n/a	0.0	0	0	0	FR2	1	R1001P
2923.163	0.016	2036115	START	n/a	n/a	n/a	-999	25	[-999, -999, -999]	n/a	0	1	0	n/a	n/a	0.0	0	0	0	FR2	1	R1001P
2923.179	15.469	2036123	PROB	15.437	n/a	n/a	-999	25	[4, 7, 2]	16	0	1	0	n/a	n/a	0.0	0	0	0	FR2	1	R1001P
2938.648	5.073	2043857	PROB	5.073	n/a	n/a	-999	25	[8, 5, 6]	19	0	1	0	n/a	n/a	0.0	0	0	0	FR2	1	R1001P
2943.721	0.011	2046393	STOP	n/a	n/a	n/a	-999	25	[-999, -999, -999]	n/a	0	1	0	n/a	n/a	0.0	0	0	0	FR2	1	R1001P
2943.732	1.102	2046399	DISTRACT_END	n/a	n/a	n/a	-999	25	[0, 0, 0]	n/a	0	1	0	n/a	n/a	0.0	0	0	0	FR2	1	R1001P
2944.834	2.408	2046950	REC_START	n/a	n/a	n/a	-999	25	[0, 0, 0]	n/a	0	1	0	n/a	n/a	0.0	0	0	0	FR2	1	R1001P
2947.242	3.827	2048153	REC_WORD	2.408	n/a	ARM	-999	25	[0, 0, 0]	n/a	0	1	0	n/a	n/a	0.0	0	0	0	FR2	1	R1001P
2951.069	3.863	2050067	REC_WORD	6.235	n/a	LEG	-999	25	[0, 0, 0]	n/a	0	1	0	n/a	n/a	0.0	0	0	0	FR2	1	R1001P
2954.932	15.146	2051998	REC_WORD	10.098	n/a	CHIN	-999	25	[0, 0, 0]	n/a	0	1	0	n/a	n/a	0.0	0	0	0	FR2	1	R1001P
2970.078	4.767	2059571	REC_WORD	25.244	n/a	BRICK	-999	25	[0, 0, 0]	n/a	0	1	0	n/a	n/a	0.0	0	0	0	FR2	1	R1001P
2974.845	5.495	2061954	REC_END	n/a	n/a	n/a	-999	25	[0, 0, 0]	n/a	0	1	0	n/a	n/a	0.0	0	0	0	FR2	1	R1001P
2980.34	0.0	2064702	SESS_END	n/a	n/a	n/a	-999	25	[0, 0, 0]	n/a	0	1	0	n/a	n/a	0.0	0	0	0	FR2	1	R1001P
