onset	duration	sample	trial_type	response_time	stim_file	item_name	serialpos	list	test	answer	stimulation	stim_list	stim_duration	anode_label	cathode_label	amplitude	pulse_freq	n_pulses	pulse_width	experiment	session	subject
0.0	11.137	251414	SESS_START	n/a	n/a	n/a	-999	-999	[0, 0, 0]	n/a	0	0	0	n/a	n/a	0.0	0	0	0	FR2	1	R1030J
11.137	10.0	262551	COUNTDOWN_START	n/a	n/a	n/a	-999	-999	[0, 0, 0]	n/a	0	0	0	n/a	n/a	0.0	0	0	0	FR2	1	R1030J
21.565	3.879	272979	COUNTDOWN_END	n/a	n/a	n/a	-999	-999	[0, 0, 0]	n/a	0	0	0	n/a	n/a	0.0	0	0	0	FR2	1	R1030J
25.444	1.6	276858	PRACTICE_WORD	n/a	n/a	CAMEL	1	-1	[0, 0, 0]	n/a	0	0	0	n/a	n/a	0.0	0	0	0	FR2	1	R1030J
27.948	1.6	279362	PRACTICE_WORD	n/a	n/a	BEAM	2	-1	[0, 0, 0]	n/a	0	0	0	n/a	n/a	0.0	0	0	0	FR2	1	R1030J
30.387	1.6	281801	PRACTICE_WORD	n/a	n/a	RHINO	3	-1	[0, 0, 0]	n/a	0	0	0	n/a	n/a	0.0	0	0	0	FR2	1	R1030J
32.873	1.6	284287	PRACTICE_WORD	n/a	n/a	WAGON	4	-1	[0, 0, 0]	n/a	0	0	0	n/a	n/a	0.0	0	0	0	FR2	1	R1030J
35.478	1.6	286892	PRACTICE_WORD	n/a	n/a	FLOOD	5	-1	[0, 0, 0]	n/a	0	0	0	n/a	n/a	0.0	0	0	0	FR2	1	R1030J
37.982	1.6	289396	PRACTICE_WORD	n/a	n/a	TONGUE	6	-1	[0, 0, 0]	n/a	0	0	0	n/a	n/a	0.0	0	0	0	FR2	1	R1030J
40.436	1.6	291850	PRACTICE_WORD	n/a	n/a	WATCH	7	-1	[0, 0, 0]	n/a	0	0	0	n/a	n/a	0.0	0	0	0	FR2	1	R1030J
42.874	1.6	294288	PRACTICE_WORD	n/a	n/a	RING	8	-1	[0, 0, 0]	n/a	0	0	0	n/a	n/a	0.0	0	0	0	FR2	1	R1030J
45.312	1.6	296726	PRACTICE_WORD	n/a	n/a	COTTON	9	-1	[0, 0, 0]	n/a	0	0	0	n/a	n/a	0.0	0	0	0	FR2	1	R1030J
47.816	1.6	299230	PRACTICE_WORD	n/a	n/a	ATTIC	10	-1	[0, 0, 0]	n/a	0	0	0	n/a	n/a	0.0	0	0	0	FR2	1	R1030J
50.404	1.6	301818	PRACTICE_WORD	n/a	n/a	CHEST	11	-1	[0, 0, 0]	n/a	0	0	0	n/a	n/a	0.0	0	0	0	FR2	1	R1030J
52.99	1.6	304404	PRACTICE_WORD	n/a	n/a	IRON	12	-1	[0, 0, 0]	n/a	0	0	0	n/a	n/a	0.0	0	0	0	FR2	1	R1030J
54.61	0.0	306024	PRACTICE_DISTRACT_START	n/a	n/a	n/a	-999	-1	[0, 0, 0]	n/a	0	0	0	n/a	n/a	0.0	0	0	0	FR2	1	R1030J
54.61	0.033	306024	START	n/a	n/a	n/a	-999	-1	[-999, -999, -999]	n/a	0	0	0	n/a	n/a	0.0	0	0	0	FR2	1	R1030J
54.643	3.857	306057	PROB	3.819	n/a	n/a	-999	-1	[4, 5, 8]	17	0	0	0	n/a	n/a	0.0	0	0	0	FR2	1	R1030J
58.5	2.487	309914	PROB	2.459	n/a	n/a	-999	-1	[4, 6, 3]	13	0	0	0	n/a	n/a	0.0	0	0	0	FR2	1	R1030J
60.987	3.257	312401	PROB	3.22	n/a	n/a	-999	-1	[6, 6, 4]	16	0	0	0	n/a	n/a	0.0	0	0	0	FR2	1	R1030J
64.244	2.737	315658	PROB	2.706	n/a	n/a	-999	-1	[5, 6, 2]	13	0	0	0	n/a	n/a	0.0	0	0	0	FR2	1	R1030J
66.981	3.289	318395	PROB	3.258	n/a	n/a	-999	-1	[4, 9, 9]	22	0	0	0	n/a	n/a	0.0	0	0	0	FR2	1	R1030J
70.27	3.455	321684	PROB	3.433	n/a	n/a	-999	-1	[4, 2, 7]	13	0	0	0	n/a	n/a	0.0	0	0	0	FR2	1	R1030J
73.725	3.977	325139	PROB	3.977	n/a	n/a	-999	-1	[5, 7, 6]	18	0	0	0	n/a	n/a	0.0	0	0	0	FR2	1	R1030J
77.702	0.013	329115	STOP	n/a	n/a	n/a	-999	-1	[-999, -999, -999]	n/a	0	0	0	n/a	n/a	0.0	0	0	0	FR2	1	R1030J
77.715	0.604	329128	PRACTICE_DISTRACT_END	n/a	n/a	n/a	-999	-1	[0, 0, 0]	n/a	0	0	0	n/a	n/a	0.0	0	0	0	FR2	1	R1030J
78.319	30.515	329732	PRACTICE_REC_START	n/a	n/a	n/a	-999	-1	[0, 0, 0]	n/a	0	0	0	n/a	n/a	0.0	0	0	0	FR2	1	R1030J
108.834	14.909	360247	PRACTICE_REC_END	n/a	n/a	n/a	-999	-1	[0, 0, 0]	n/a	0	0	0	n/a	n/a	0.0	0	0	0	FR2	1	R1030J
123.743	10.0	375156	COUNTDOWN_START	n/a	n/a	n/a	-999	1	[0, 0, 0]	n/a	0	1	0	n/a	n/a	0.0	0	0	0	FR2	1	R1030J
123.743	10.428	375156	TRIAL	n/a	n/a	n/a	-999	1	[0, 0, 0]	n/a	0	1	0	n/a	n/a	0.0	0	0	0	FR2	1	R1030J
134.171	0.006	385584	COUNTDOWN_END	n/a	n/a	n/a	-999	1	[0, 0, 0]	n/a	0	1	0	n/a	n/a	0.0	0	0	0	FR2	1	R1030J
134.177	1.6	385590	ORIENT	n/a	n/a	n/a	-999	1	[0, 0, 0]	n/a	0	1	0	n/a	n/a	0.0	0	0	0	FR2	1	R1030J
136.781	1.6	388194	WORD	n/a	wordpools/wordpool_EN.txt	SHIRT	1	1	[0, 0, 0]	n/a	0	1	0	n/a	n/a	0.0	0	0	0	FR2	1	R1030J
139.303	1.6	390716	WORD	n/a	wordpools/wordpool_EN.txt	TRUCK	2	1	[0, 0, 0]	n/a	0	1	0	n/a	n/a	0.0	0	0	0	FR2	1	R1030J
141.547	4.6	392960	STIM_ON	n/a	n/a	n/a	-999	1	[0, 0, 0]	n/a	1	1	4600	LQ1	LQ2	500.0	50	230	300	FR2	1	R1030J
141.756	1.6	393169	WORD	n/a	wordpools/wordpool_EN.txt	PEARL	3	1	[0, 0, 0]	n/a	1	1	4600	LQ1	LQ2	500.0	50	230	300	FR2	1	R1030J
144.144	1.6	395557	WORD	n/a	wordpools/wordpool_EN.txt	SHARK	4	1	[0, 0, 0]	n/a	1	1	4600	LQ1	LQ2	500.0	50	230	300	FR2	1	R1030J
146.698	1.6	398111	WORD	n/a	wordpools/wordpool_EN.txt	FLOOR	5	1	[0, 0, 0]	n/a	0	1	0	n/a	n/a	0.0	0	0	0	FR2	1	R1030J
149.085	1.6	400498	WORD	n/a	wordpools/wordpool_EN.txt	STOVE	6	1	[0, 0, 0]	n/a	0	1	0	n/a	n/a	0.0	0	0	0	FR2	1	R1030J
151.474	4.6	402887	STIM_ON	n/a	n/a	n/a	-999	1	[0, 0, 0]	n/a	1	1	4600	LQ1	LQ2	500.0	50	230	300	FR2	1	R1030J
151.69	1.6	403103	WORD	n/a	wordpools/wordpool_EN.txt	TRAIN	7	1	[0, 0, 0]	n/a	1	1	4600	LQ1	LQ2	500.0	50	230	300	FR2	1	R1030J
154.312	1.6	405725	WORD	n/a	wordpools/wordpool_EN.txt	SPRING	8	1	[0, 0, 0]	n/a	1	1	4600	LQ1	LQ2	500.0	50	230	300	FR2	1	R1030J
156.782	1.6	408195	WORD	n/a	wordpools/wordpool_EN.txt	CAPE	9	1	[0, 0, 0]	n/a	0	1	0	n/a	n/a	0.0	0	0	0	FR2	1	R1030J
159.237	1.6	410650	WORD	n/a	wordpools/wordpool_EN.txt	PEACH	10	1	[0, 0, 0]	n/a	0	1	0	n/a	n/a	0.0	0	0	0	FR2	1	R1030J
161.602	4.6	413015	STIM_ON	n/a	n/a	n/a	-999	1	[0, 0, 0]	n/a	1	1	4600	LQ1	LQ2	500.0	50	230	300	FR2	1	R1030J
161.807	1.6	413220	WORD	n/a	wordpools/wordpool_EN.txt	MUG	11	1	[0, 0, 0]	n/a	1	1	4600	LQ1	LQ2	500.0	50	230	300	FR2	1	R1030J
164.245	1.6	415658	WORD	n/a	wordpools/wordpool_EN.txt	HAT	12	1	[0, 0, 0]	n/a	1	1	4600	LQ1	LQ2	500.0	50	230	300	FR2	1	R1030J
165.864	0.0	417277	DISTRACT_START	n/a	n/a	n/a	-999	1	[0, 0, 0]	n/a	1	1	4600	LQ1	LQ2	500.0	50	230	300	FR2	1	R1030J
165.864	0.016	417277	START	n/a	n/a	n/a	-999	1	[-999, -999, -999]	n/a	0	1	0	n/a	n/a	0.0	0	0	0	FR2	1	R1030J
165.88	2.588	417293	PROB	2.567	n/a	n/a	-999	1	[1, 7, 1]	9	0	1	0	n/a	n/a	0.0	0	0	0	FR2	1	R1030J
168.468	2.32	419881	PROB	2.284	n/a	n/a	-999	1	[4, 5, 2]	11	0	1	0	n/a	n/a	0.0	0	0	0	FR2	1	R1030J
170.788	1.97	422201	PROB	1.947	n/a	n/a	-999	1	[2, 1, 2]	5	0	1	0	n/a	n/a	0.0	0	0	0	FR2	1	R1030J
172.758	2.589	424171	PROB	2.554	n/a	n/a	-999	1	[1, 4, 5]	10	0	1	0	n/a	n/a	0.0	0	0	0	FR2	1	R1030J
175.347	2.821	426760	PROB	2.788	n/a	n/a	-999	1	[7, 4, 7]	18	0	1	0	n/a	n/a	0.0	0	0	0	FR2	1	R1030J
178.168	3.072	429581	PROB	3.048	n/a	n/a	-999	1	[8, 5, 6]	19	0	1	0	n/a	n/a	0.0	0	0	0	FR2	1	R1030J
181.24	3.089	432653	PROB	3.064	n/a	n/a	-999	1	[4, 9, 4]	17	0	1	0	n/a	n/a	0.0	0	0	0	FR2	1	R1030J
184.329	2.678	435742	PROB	2.678	n/a	n/a	-999	1	[7, 1, 8]	16	0	1	0	n/a	n/a	0.0	0	0	0	FR2	1	R1030J
187.007	0.01	438420	STOP	n/a	n/a	n/a	-999	1	[-999, -999, -999]	n/a	0	1	0	n/a	n/a	0.0	0	0	0	FR2	1	R1030J
187.017	1.541	438430	DISTRACT_END	n/a	n/a	n/a	-999	1	[0, 0, 0]	n/a	0	1	0	n/a	n/a	0.0	0	0	0	FR2	1	R1030J
188.558	2.41	439970	REC_START	n/a	n/a	n/a	-999	1	[0, 0, 0]	n/a	0	1	0	n/a	n/a	0.0	0	0	0	FR2	1	R1030J
190.968	3.394	442380	REC_WORD	2.41	n/a	PEACH	-999	1	[0, 0, 0]	n/a	0	1	0	n/a	n/a	0.0	0	0	0	FR2	1	R1030J
194.362	1.203	445774	REC_WORD_VV	5.804	n/a	<>	-999	1	[0, 0, 0]	n/a	0	1	0	n/a	n/a	0.0	0	0	0	FR2	1	R1030J
195.565	1.12	446977	REC_WORD_VV	7.007	n/a	<>	-999	1	[0, 0, 0]	n/a	0	1	0	n/a	n/a	0.0	0	0	0	FR2	1	R1030J
196.685	3.692	448097	REC_WORD_VV	8.127	n/a	<>	-999	1	[0, 0, 0]	n/a	0	1	0	n/a	n/a	0.0	0	0	0	FR2	1	R1030J
200.377	7.547	451789	REC_WORD	11.819	n/a	FLOOR	-999	1	[0, 0, 0]	n/a	0	1	0	n/a	n/a	0.0	0	0	0	FR2	1	R1030J
207.924	10.117	459336	REC_WORD	19.366	n/a	WAGON	-999	1	[0, 0, 0]	n/a	0	1	0	n/a	n/a	0.0	0	0	0	FR2	1	R1030J
218.041	0.156	469453	REC_WORD_VV	29.483	n/a	<>	-999	1	[0, 0, 0]	n/a	0	1	0	n/a	n/a	0.0	0	0	0	FR2	1	R1030J
218.197	3.861	469609	REC_END	n/a	n/a	n/a	-999	1	[0, 0, 0]	n/a	0	1	0	n/a	n/a	0.0	0	0	0	FR2	1	R1030J
222.058	10.0	473470	COUNTDOWN_START	n/a	n/a	n/a	-999	2	[0, 0, 0]	n/a	0	0	0	n/a	n/a	0.0	0	0	0	FR2	1	R1030J
222.059	10.427	473471	TRIAL	n/a	n/a	n/a	-999	2	[0, 0, 0]	n/a	0	0	0	n/a	n/a	0.0	0	0	0	FR2	1	R1030J
232.486	0.006	483898	COUNTDOWN_END	n/a	n/a	n/a	-999	2	[0, 0, 0]	n/a	0	0	0	n/a	n/a	0.0	0	0	0	FR2	1	R1030J
232.492	1.6	483904	ORIENT	n/a	n/a	n/a	-999	2	[0, 0, 0]	n/a	0	0	0	n/a	n/a	0.0	0	0	0	FR2	1	R1030J
234.98	1.6	486392	WORD	n/a	wordpools/wordpool_EN.txt	STEAK	1	2	[0, 0, 0]	n/a	0	0	0	n/a	n/a	0.0	0	0	0	FR2	1	R1030J
237.467	1.6	488879	WORD	n/a	wordpools/wordpool_EN.txt	STEAM	2	2	[0, 0, 0]	n/a	0	0	0	n/a	n/a	0.0	0	0	0	FR2	1	R1030J
239.972	1.6	491384	WORD	n/a	wordpools/wordpool_EN.txt	GOAT	3	2	[0, 0, 0]	n/a	0	0	0	n/a	n/a	0.0	0	0	0	FR2	1	R1030J
242.543	1.6	493955	WORD	n/a	wordpools/wordpool_EN.txt	ROOM	4	2	[0, 0, 0]	n/a	0	0	0	n/a	n/a	0.0	0	0	0	FR2	1	R1030J
245.03	1.6	496442	WORD	n/a	wordpools/wordpool_EN.txt	NAIL	5	2	[0, 0, 0]	n/a	0	0	0	n/a	n/a	0.0	0	0	0	FR2	1	R1030J
247.584	1.6	498996	WORD	n/a	wordpools/wordpool_EN.txt	SNAKE	6	2	[0, 0, 0]	n/a	0	0	0	n/a	n/a	0.0	0	0	0	FR2	1	R1030J
250.005	1.6	501417	WORD	n/a	wordpools/wordpool_EN.txt	FARM	7	2	[0, 0, 0]	n/a	0	0	0	n/a	n/a	0.0	0	0	0	FR2	1	R1030J
252.593	1.6	504005	WORD	n/a	wordpools/wordpool_EN.txt	HOOF	8	2	[0, 0, 0]	n/a	0	0	0	n/a	n/a	0.0	0	0	0	FR2	1	R1030J
255.014	1.6	506426	WORD	n/a	wordpools/wordpool_EN.txt	FRUIT	9	2	[0, 0, 0]	n/a	0	0	0	n/a	n/a	0.0	0	0	0	FR2	1	R1030J
257.402	1.6	508814	WORD	n/a	wordpools/wordpool_EN.txt	CROW	10	2	[0, 0, 0]	n/a	0	0	0	n/a	n/a	0.0	0	0	0	FR2	1	R1030J
260.022	1.6	511434	WORD	n/a	wordpools/wordpool_EN.txt	POND	11	2	[0, 0, 0]	n/a	0	0	0	n/a	n/a	0.0	0	0	0	FR2	1	R1030J
262.576	1.6	513988	WORD	n/a	wordpools/wordpool_EN.txt	HORN	12	2	[0, 0, 0]	n/a	0	0	0	n/a	n/a	0.0	0	0	0	FR2	1	R1030J
264.197	0.0	515609	DISTRACT_START	n/a	n/a	n/a	-999	2	[0, 0, 0]	n/a	0	0	0	n/a	n/a	0.0	0	0	0	FR2	1	R1030J
264.197	0.016	515609	START	n/a	n/a	n/a	-999	2	[-999, -999, -999]	n/a	0	0	0	n/a	n/a	0.0	0	0	0	FR2	1	R1030J
264.213	3.622	515625	PROB	3.595	n/a	n/a	-999	2	[3, 6, 6]	15	0	0	0	n/a	n/a	0.0	0	0	0	FR2	1	R1030J
267.835	3.656	519247	PROB	3.621	n/a	n/a	-999	2	[4, 1, 8]	13	0	0	0	n/a	n/a	0.0	0	0	0	FR2	1	R1030J
271.491	2.538	522903	PROB	2.517	n/a	n/a	-999	2	[2, 2, 8]	12	0	0	0	n/a	n/a	0.0	0	0	0	FR2	1	R1030J
274.029	2.355	525441	PROB	2.324	n/a	n/a	-999	2	[2, 4, 6]	12	0	0	0	n/a	n/a	0.0	0	0	0	FR2	1	R1030J
276.384	2.637	527796	PROB	2.608	n/a	n/a	-999	2	[7, 7, 1]	15	0	0	0	n/a	n/a	0.0	0	0	0	FR2	1	R1030J
279.021	2.604	530433	PROB	2.571	n/a	n/a	-999	2	[4, 1, 2]	7	0	0	0	n/a	n/a	0.0	0	0	0	FR2	1	R1030J
281.625	2.02	533037	PROB	1.991	n/a	n/a	-999	2	[3, 3, 1]	7	0	0	0	n/a	n/a	0.0	0	0	0	FR2	1	R1030J
283.645	2.971	535057	PROB	2.971	n/a	n/a	-999	2	[7, 4, 3]	14	0	0	0	n/a	n/a	0.0	0	0	0	FR2	1	R1030J
286.616	0.018	538028	STOP	n/a	n/a	n/a	-999	2	[-999, -999, -999]	n/a	0	0	0	n/a	n/a	0.0	0	0	0	FR2	1	R1030J
286.634	1.572	538046	DISTRACT_END	n/a	n/a	n/a	-999	2	[0, 0, 0]	n/a	0	0	0	n/a	n/a	0.0	0	0	0	FR2	1	R1030J
288.206	4.267	539618	REC_START	n/a	n/a	n/a	-999	2	[0, 0, 0]	n/a	0	0	0	n/a	n/a	0.0	0	0	0	FR2	1	R1030J
292.473	1.961	543885	REC_WORD_VV	4.267	n/a	<>	-999	2	[0, 0, 0]	n/a	0	0	0	n/a	n/a	0.0	0	0	0	FR2	1	R1030J
294.434	0.411	545846	REC_WORD_VV	6.228	n/a	<>	-999	2	[0, 0, 0]	n/a	0	0	0	n/a	n/a	0.0	0	0	0	FR2	1	R1030J
294.845	1.533	546257	REC_WORD	6.639	n/a	CROW	-999	2	[0, 0, 0]	n/a	0	0	0	n/a	n/a	0.0	0	0	0	FR2	1	R1030J
296.378	5.185	547790	REC_WORD	8.172	n/a	SNAKE	-999	2	[0, 0, 0]	n/a	0	0	0	n/a	n/a	0.0	0	0	0	FR2	1	R1030J
301.563	1.301	552974	REC_WORD_VV	13.357	n/a	<>	-999	2	[0, 0, 0]	n/a	0	0	0	n/a	n/a	0.0	0	0	0	FR2	1	R1030J
302.864	1.091	554275	REC_WORD_VV	14.658	n/a	<>	-999	2	[0, 0, 0]	n/a	0	0	0	n/a	n/a	0.0	0	0	0	FR2	1	R1030J
303.955	1.115	555366	REC_WORD_VV	15.749	n/a	<>	-999	2	[0, 0, 0]	n/a	0	0	0	n/a	n/a	0.0	0	0	0	FR2	1	R1030J
305.07	9.684	556481	REC_WORD_VV	16.864	n/a	<>	-999	2	[0, 0, 0]	n/a	0	0	0	n/a	n/a	0.0	0	0	0	FR2	1	R1030J
314.754	3.126	566165	REC_WORD_VV	26.548	n/a	<>	-999	2	[0, 0, 0]	n/a	0	0	0	n/a	n/a	0.0	0	0	0	FR2	1	R1030J
317.88	2.428	569291	REC_END	n/a	n/a	n/a	-999	2	[0, 0, 0]	n/a	0	0	0	n/a	n/a	0.0	0	0	0	FR2	1	R1030J
320.308	0.0	571719	TRIAL	n/a	n/a	n/a	-999	3	[0, 0, 0]	n/a	0	1	0	n/a	n/a	0.0	0	0	0	FR2	1	R1030J
320.308	10.0	571719	COUNTDOWN_START	n/a	n/a	n/a	-999	3	[0, 0, 0]	n/a	0	1	0	n/a	n/a	0.0	0	0	0	FR2	1	R1030J
330.736	0.005	582147	COUNTDOWN_END	n/a	n/a	n/a	-999	3	[0, 0, 0]	n/a	0	1	0	n/a	n/a	0.0	0	0	0	FR2	1	R1030J
330.741	1.6	582152	ORIENT	n/a	n/a	n/a	-999	3	[0, 0, 0]	n/a	0	1	0	n/a	n/a	0.0	0	0	0	FR2	1	R1030J
333.037	4.6	584448	STIM_ON	n/a	n/a	n/a	-999	3	[0, 0, 0]	n/a	1	1	4600	LQ1	LQ2	500.0	50	230	300	FR2	1	R1030J
333.246	1.6	584657	WORD	n/a	wordpools/wordpool_EN.txt	BEACH	1	3	[0, 0, 0]	n/a	1	1	4600	LQ1	LQ2	500.0	50	230	300	FR2	1	R1030J
335.866	1.6	587277	WORD	n/a	wordpools/wordpool_EN.txt	ROOF	2	3	[0, 0, 0]	n/a	1	1	4600	LQ1	LQ2	500.0	50	230	300	FR2	1	R1030J
338.305	1.6	589716	WORD	n/a	wordpools/wordpool_EN.txt	VEST	3	3	[0, 0, 0]	n/a	0	1	0	n/a	n/a	0.0	0	0	0	FR2	1	R1030J
340.908	1.6	592319	WORD	n/a	wordpools/wordpool_EN.txt	SPARK	4	3	[0, 0, 0]	n/a	0	1	0	n/a	n/a	0.0	0	0	0	FR2	1	R1030J
343.118	4.6	594529	STIM_ON	n/a	n/a	n/a	-999	3	[0, 0, 0]	n/a	1	1	4600	LQ1	LQ2	500.0	50	230	300	FR2	1	R1030J
343.33	1.6	594741	WORD	n/a	wordpools/wordpool_EN.txt	BOX	5	3	[0, 0, 0]	n/a	1	1	4600	LQ1	LQ2	500.0	50	230	300	FR2	1	R1030J
345.816	1.6	597227	WORD	n/a	wordpools/wordpool_EN.txt	PARK	6	3	[0, 0, 0]	n/a	1	1	4600	LQ1	LQ2	500.0	50	230	300	FR2	1	R1030J
348.205	1.6	599616	WORD	n/a	wordpools/wordpool_EN.txt	GEESE	7	3	[0, 0, 0]	n/a	0	1	0	n/a	n/a	0.0	0	0	0	FR2	1	R1030J
350.775	1.6	602186	WORD	n/a	wordpools/wordpool_EN.txt	PEA	8	3	[0, 0, 0]	n/a	0	1	0	n/a	n/a	0.0	0	0	0	FR2	1	R1030J
353.065	4.6	604476	STIM_ON	n/a	n/a	n/a	-999	3	[0, 0, 0]	n/a	1	1	4600	LQ1	LQ2	500.0	50	230	300	FR2	1	R1030J
353.28	1.6	604691	WORD	n/a	wordpools/wordpool_EN.txt	MAT	9	3	[0, 0, 0]	n/a	1	1	4600	LQ1	LQ2	500.0	50	230	300	FR2	1	R1030J
355.867	1.6	607278	WORD	n/a	wordpools/wordpool_EN.txt	SKI	10	3	[0, 0, 0]	n/a	1	1	4600	LQ1	LQ2	500.0	50	230	300	FR2	1	R1030J
358.338	1.6	609749	WORD	n/a	wordpools/wordpool_EN.txt	STONE	11	3	[0, 0, 0]	n/a	0	1	0	n/a	n/a	0.0	0	0	0	FR2	1	R1030J
360.942	1.6	612353	WORD	n/a	wordpools/wordpool_EN.txt	MOLE	12	3	[0, 0, 0]	n/a	0	1	0	n/a	n/a	0.0	0	0	0	FR2	1	R1030J
362.561	0.001	613972	DISTRACT_START	n/a	n/a	n/a	-999	3	[0, 0, 0]	n/a	0	1	0	n/a	n/a	0.0	0	0	0	FR2	1	R1030J
362.562	0.016	613973	START	n/a	n/a	n/a	-999	3	[-999, -999, -999]	n/a	0	1	0	n/a	n/a	0.0	0	0	0	FR2	1	R1030J
362.578	2.871	613989	PROB	2.835	n/a	n/a	-999	3	[9, 7, 2]	18	0	1	0	n/a	n/a	0.0	0	0	0	FR2	1	R1030J
365.449	2.521	616860	PROB	2.492	n/a	n/a	-999	3	[5, 6, 1]	12	0	1	0	n/a	n/a	0.0	0	0	0	FR2	1	R1030J
367.97	2.471	619381	PROB	2.443	n/a	n/a	-999	3	[7, 3, 1]	11	0	1	0	n/a	n/a	0.0	0	0	0	FR2	1	R1030J
370.441	3.706	621852	PROB	3.676	n/a	n/a	-999	3	[9, 6, 2]	17	0	1	0	n/a	n/a	0.0	0	0	0	FR2	1	R1030J
374.147	2.371	625558	PROB	2.338	n/a	n/a	-999	3	[1, 1, 2]	4	0	1	0	n/a	n/a	0.0	0	0	0	FR2	1	R1030J
376.518	2.955	627929	PROB	2.919	n/a	n/a	-999	3	[1, 9, 8]	18	0	1	0	n/a	n/a	0.0	0	0	0	FR2	1	R1030J
379.473	2.604	630884	PROB	2.572	n/a	n/a	-999	3	[8, 1, 8]	17	0	1	0	n/a	n/a	0.0	0	0	0	FR2	1	R1030J
382.077	3.44	633488	PROB	3.44	n/a	n/a	-999	3	[1, 4, 2]	7	0	1	0	n/a	n/a	0.0	0	0	0	FR2	1	R1030J
385.517	0.016	636928	STOP	n/a	n/a	n/a	-999	3	[-999, -999, -999]	n/a	0	1	0	n/a	n/a	0.0	0	0	0	FR2	1	R1030J
385.533	1.22	636944	DISTRACT_END	n/a	n/a	n/a	-999	3	[0, 0, 0]	n/a	0	1	0	n/a	n/a	0.0	0	0	0	FR2	1	R1030J
386.753	1.354	638164	REC_START	n/a	n/a	n/a	-999	3	[0, 0, 0]	n/a	0	1	0	n/a	n/a	0.0	0	0	0	FR2	1	R1030J
388.107	1.626	639518	REC_WORD_VV	1.354	n/a	<>	-999	3	[0, 0, 0]	n/a	0	1	0	n/a	n/a	0.0	0	0	0	FR2	1	R1030J
389.733	3.842	641144	REC_WORD	2.98	n/a	PEA	-999	3	[0, 0, 0]	n/a	0	1	0	n/a	n/a	0.0	0	0	0	FR2	1	R1030J
393.575	1.179	644986	REC_WORD_VV	6.822	n/a	<>	-999	3	[0, 0, 0]	n/a	0	1	0	n/a	n/a	0.0	0	0	0	FR2	1	R1030J
394.754	2.632	646165	REC_WORD_VV	8.001	n/a	<>	-999	3	[0, 0, 0]	n/a	0	1	0	n/a	n/a	0.0	0	0	0	FR2	1	R1030J
397.386	5.956	648797	REC_WORD	10.633	n/a	MAT	-999	3	[0, 0, 0]	n/a	0	1	0	n/a	n/a	0.0	0	0	0	FR2	1	R1030J
403.342	6.746	654753	REC_WORD_VV	16.589	n/a	<>	-999	3	[0, 0, 0]	n/a	0	1	0	n/a	n/a	0.0	0	0	0	FR2	1	R1030J
410.088	6.678	661498	REC_WORD	23.335	n/a	VEST	-999	3	[0, 0, 0]	n/a	0	1	0	n/a	n/a	0.0	0	0	0	FR2	1	R1030J
416.766	5.245	668176	REC_END	n/a	n/a	n/a	-999	3	[0, 0, 0]	n/a	0	1	0	n/a	n/a	0.0	0	0	0	FR2	1	R1030J
422.011	10.0	673421	COUNTDOWN_START	n/a	n/a	n/a	-999	4	[0, 0, 0]	n/a	0	1	0	n/a	n/a	0.0	0	0	0	FR2	1	R1030J
422.012	10.427	673422	TRIAL	n/a	n/a	n/a	-999	4	[0, 0, 0]	n/a	0	1	0	n/a	n/a	0.0	0	0	0	FR2	1	R1030J
432.439	0.006	683849	COUNTDOWN_END	n/a	n/a	n/a	-999	4	[0, 0, 0]	n/a	0	1	0	n/a	n/a	0.0	0	0	0	FR2	1	R1030J
432.445	1.6	683855	ORIENT	n/a	n/a	n/a	-999	4	[0, 0, 0]	n/a	0	1	0	n/a	n/a	0.0	0	0	0	FR2	1	R1030J
434.866	1.6	686276	WORD	n/a	wordpools/wordpool_EN.txt	SLEEVE	1	4	[0, 0, 0]	n/a	0	1	0	n/a	n/a	0.0	0	0	0	FR2	1	R1030J
437.405	1.6	688815	WORD	n/a	wordpools/wordpool_EN.txt	SQUARE	2	4	[0, 0, 0]	n/a	0	1	0	n/a	n/a	0.0	0	0	0	FR2	1	R1030J
439.592	4.6	691002	STIM_ON	n/a	n/a	n/a	-999	4	[0, 0, 0]	n/a	1	1	4600	LQ1	LQ2	500.0	50	230	300	FR2	1	R1030J
439.808	1.6	691218	WORD	n/a	wordpools/wordpool_EN.txt	SHELL	3	4	[0, 0, 0]	n/a	1	1	4600	LQ1	LQ2	500.0	50	230	300	FR2	1	R1030J
442.363	1.6	693773	WORD	n/a	wordpools/wordpool_EN.txt	RIB	4	4	[0, 0, 0]	n/a	1	1	4600	LQ1	LQ2	500.0	50	230	300	FR2	1	R1030J
444.866	1.6	696276	WORD	n/a	wordpools/wordpool_EN.txt	SUIT	5	4	[0, 0, 0]	n/a	0	1	0	n/a	n/a	0.0	0	0	0	FR2	1	R1030J
447.388	1.6	698798	WORD	n/a	wordpools/wordpool_EN.txt	ROOT	6	4	[0, 0, 0]	n/a	0	1	0	n/a	n/a	0.0	0	0	0	FR2	1	R1030J
449.649	4.6	701059	STIM_ON	n/a	n/a	n/a	-999	4	[0, 0, 0]	n/a	1	1	4600	LQ1	LQ2	500.0	50	230	300	FR2	1	R1030J
449.858	1.6	701268	WORD	n/a	wordpools/wordpool_EN.txt	BOARD	7	4	[0, 0, 0]	n/a	1	1	4600	LQ1	LQ2	500.0	50	230	300	FR2	1	R1030J
452.297	1.6	703707	WORD	n/a	wordpools/wordpool_EN.txt	ICE	8	4	[0, 0, 0]	n/a	1	1	4600	LQ1	LQ2	500.0	50	230	300	FR2	1	R1030J
454.867	1.6	706277	WORD	n/a	wordpools/wordpool_EN.txt	HOOK	9	4	[0, 0, 0]	n/a	0	1	0	n/a	n/a	0.0	0	0	0	FR2	1	R1030J
457.305	1.6	708715	WORD	n/a	wordpools/wordpool_EN.txt	FOOT	10	4	[0, 0, 0]	n/a	0	1	0	n/a	n/a	0.0	0	0	0	FR2	1	R1030J
459.517	4.6	710927	STIM_ON	n/a	n/a	n/a	-999	4	[0, 0, 0]	n/a	1	1	4600	LQ1	LQ2	500.0	50	230	300	FR2	1	R1030J
459.725	1.6	711135	WORD	n/a	wordpools/wordpool_EN.txt	SEA	11	4	[0, 0, 0]	n/a	1	1	4600	LQ1	LQ2	500.0	50	230	300	FR2	1	R1030J
462.145	1.6	713555	WORD	n/a	wordpools/wordpool_EN.txt	GUARD	12	4	[0, 0, 0]	n/a	1	1	4600	LQ1	LQ2	500.0	50	230	300	FR2	1	R1030J
463.765	0.001	715175	DISTRACT_START	n/a	n/a	n/a	-999	4	[0, 0, 0]	n/a	1	1	4600	LQ1	LQ2	500.0	50	230	300	FR2	1	R1030J
463.766	0.016	715176	START	n/a	n/a	n/a	-999	4	[-999, -999, -999]	n/a	0	1	0	n/a	n/a	0.0	0	0	0	FR2	1	R1030J
463.782	2.955	715192	PROB	2.928	n/a	n/a	-999	4	[7, 1, 8]	16	0	1	0	n/a	n/a	0.0	0	0	0	FR2	1	R1030J
466.737	4.608	718147	PROB	4.582	n/a	n/a	-999	4	[6, 4, 4]	14	0	1	0	n/a	n/a	0.0	0	0	0	FR2	1	R1030J
471.345	3.756	722755	PROB	3.717	n/a	n/a	-999	4	[6, 3, 5]	14	0	1	0	n/a	n/a	0.0	0	0	0	FR2	1	R1030J
475.101	3.739	726511	PROB	3.705	n/a	n/a	-999	4	[5, 7, 6]	18	0	1	0	n/a	n/a	0.0	0	0	0	FR2	1	R1030J
478.84	8.356	730250	PROB	8.356	n/a	n/a	-999	4	[8, 7, 9]	24	0	1	0	n/a	n/a	0.0	0	0	0	FR2	1	R1030J
487.196	0.009	738606	STOP	n/a	n/a	n/a	-999	4	[-999, -999, -999]	n/a	0	1	0	n/a	n/a	0.0	0	0	0	FR2	1	R1030J
487.205	1.136	738615	DISTRACT_END	n/a	n/a	n/a	-999	4	[0, 0, 0]	n/a	0	1	0	n/a	n/a	0.0	0	0	0	FR2	1	R1030J
488.341	2.764	739751	REC_START	n/a	n/a	n/a	-999	4	[0, 0, 0]	n/a	0	1	0	n/a	n/a	0.0	0	0	0	FR2	1	R1030J
491.105	1.881	742515	REC_WORD	2.764	n/a	GUARD	-999	4	[0, 0, 0]	n/a	0	1	0	n/a	n/a	0.0	0	0	0	FR2	1	R1030J
492.986	5.1	744396	REC_WORD	4.645	n/a	SLEEVE	-999	4	[0, 0, 0]	n/a	0	1	0	n/a	n/a	0.0	0	0	0	FR2	1	R1030J
498.086	18.798	749496	REC_WORD	9.745	n/a	ICE	-999	4	[0, 0, 0]	n/a	0	1	0	n/a	n/a	0.0	0	0	0	FR2	1	R1030J
516.884	1.47	768294	REC_WORD	28.543	n/a	SEA	-999	4	[0, 0, 0]	n/a	0	1	0	n/a	n/a	0.0	0	0	0	FR2	1	R1030J
518.354	2.49	769764	REC_END	n/a	n/a	n/a	-999	4	[0, 0, 0]	n/a	0	1	0	n/a	n/a	0.0	0	0	0	FR2	1	R1030J
520.844	10.0	772253	COUNTDOWN_START	n/a	n/a	n/a	-999	5	[0, 0, 0]	n/a	0	0	0	n/a	n/a	0.0	0	0	0	FR2	1	R1030J
520.845	10.427	772254	TRIAL	n/a	n/a	n/a	-999	5	[0, 0, 0]	n/a	0	0	0	n/a	n/a	0.0	0	0	0	FR2	1	R1030J
531.272	0.007	782681	COUNTDOWN_END	n/a	n/a	n/a	-999	5	[0, 0, 0]	n/a	0	0	0	n/a	n/a	0.0	0	0	0	FR2	1	R1030J
531.279	1.6	782688	ORIENT	n/a	n/a	n/a	-999	5	[0, 0, 0]	n/a	0	0	0	n/a	n/a	0.0	0	0	0	FR2	1	R1030J
533.866	1.6	785275	WORD	n/a	wordpools/wordpool_EN.txt	ROPE	1	5	[0, 0, 0]	n/a	0	0	0	n/a	n/a	0.0	0	0	0	FR2	1	R1030J
536.338	1.6	787747	WORD	n/a	wordpools/wordpool_EN.txt	CORD	2	5	[0, 0, 0]	n/a	0	0	0	n/a	n/a	0.0	0	0	0	FR2	1	R1030J
538.875	1.6	790284	WORD	n/a	wordpools/wordpool_EN.txt	BEAK	3	5	[0, 0, 0]	n/a	0	0	0	n/a	n/a	0.0	0	0	0	FR2	1	R1030J
541.28	1.6	792689	WORD	n/a	wordpools/wordpool_EN.txt	CAT	4	5	[0, 0, 0]	n/a	0	0	0	n/a	n/a	0.0	0	0	0	FR2	1	R1030J
543.749	1.6	795158	WORD	n/a	wordpools/wordpool_EN.txt	BOWL	5	5	[0, 0, 0]	n/a	0	0	0	n/a	n/a	0.0	0	0	0	FR2	1	R1030J
546.221	1.6	797630	WORD	n/a	wordpools/wordpool_EN.txt	RAIN	6	5	[0, 0, 0]	n/a	0	0	0	n/a	n/a	0.0	0	0	0	FR2	1	R1030J
548.608	1.6	800017	WORD	n/a	wordpools/wordpool_EN.txt	MUD	7	5	[0, 0, 0]	n/a	0	0	0	n/a	n/a	0.0	0	0	0	FR2	1	R1030J
551.045	1.6	802454	WORD	n/a	wordpools/wordpool_EN.txt	PIN	8	5	[0, 0, 0]	n/a	0	0	0	n/a	n/a	0.0	0	0	0	FR2	1	R1030J
553.65	1.6	805059	WORD	n/a	wordpools/wordpool_EN.txt	SPEAR	9	5	[0, 0, 0]	n/a	0	0	0	n/a	n/a	0.0	0	0	0	FR2	1	R1030J
556.037	1.6	807446	WORD	n/a	wordpools/wordpool_EN.txt	PHONE	10	5	[0, 0, 0]	n/a	0	0	0	n/a	n/a	0.0	0	0	0	FR2	1	R1030J
558.641	1.6	810050	WORD	n/a	wordpools/wordpool_EN.txt	DRUM	11	5	[0, 0, 0]	n/a	0	0	0	n/a	n/a	0.0	0	0	0	FR2	1	R1030J
561.028	1.6	812437	WORD	n/a	wordpools/wordpool_EN.txt	CHIN	12	5	[0, 0, 0]	n/a	0	0	0	n/a	n/a	0.0	0	0	0	FR2	1	R1030J
562.648	0.001	814057	DISTRACT_START	n/a	n/a	n/a	-999	5	[0, 0, 0]	n/a	0	0	0	n/a	n/a	0.0	0	0	0	FR2	1	R1030J
562.649	0.016	814058	START	n/a	n/a	n/a	-999	5	[-999, -999, -999]	n/a	0	0	0	n/a	n/a	0.0	0	0	0	FR2	1	R1030J
562.665	6.41	814074	PROB	6.376	n/a	n/a	-999	5	[9, 7, 8]	24	0	0	0	n/a	n/a	0.0	0	0	0	FR2	1	R1030J
569.075	3.29	820484	PROB	3.263	n/a	n/a	-999	5	[1, 5, 9]	15	0	0	0	n/a	n/a	0.0	0	0	0	FR2	1	R1030J
572.365	3.238	823774	PROB	3.204	n/a	n/a	-999	5	[6, 8, 2]	16	0	0	0	n/a	n/a	0.0	0	0	0	FR2	1	R1030J
575.603	2.672	827012	PROB	2.647	n/a	n/a	-999	5	[2, 4, 4]	10	0	0	0	n/a	n/a	0.0	0	0	0	FR2	1	R1030J
578.275	3.572	829684	PROB	3.534	n/a	n/a	-999	5	[6, 3, 8]	17	0	0	0	n/a	n/a	0.0	0	0	0	FR2	1	R1030J
581.847	2.531	833256	PROB	2.531	n/a	n/a	-999	5	[4, 5, 8]	17	0	0	0	n/a	n/a	0.0	0	0	0	FR2	1	R1030J
584.378	0.007	835787	STOP	n/a	n/a	n/a	-999	5	[-999, -999, -999]	n/a	0	0	0	n/a	n/a	0.0	0	0	0	FR2	1	R1030J
584.385	1.219	835794	DISTRACT_END	n/a	n/a	n/a	-999	5	[0, 0, 0]	n/a	0	0	0	n/a	n/a	0.0	0	0	0	FR2	1	R1030J
585.604	7.31	837013	REC_START	n/a	n/a	n/a	-999	5	[0, 0, 0]	n/a	0	0	0	n/a	n/a	0.0	0	0	0	FR2	1	R1030J
592.914	1.876	844323	REC_WORD_VV	7.31	n/a	<>	-999	5	[0, 0, 0]	n/a	0	0	0	n/a	n/a	0.0	0	0	0	FR2	1	R1030J
594.79	4.906	846199	REC_WORD	9.186	n/a	SPEAR	-999	5	[0, 0, 0]	n/a	0	0	0	n/a	n/a	0.0	0	0	0	FR2	1	R1030J
599.696	15.92	851105	REC_WORD_VV	14.092	n/a	<>	-999	5	[0, 0, 0]	n/a	0	0	0	n/a	n/a	0.0	0	0	0	FR2	1	R1030J
615.616	2.308	867025	REC_END	n/a	n/a	n/a	-999	5	[0, 0, 0]	n/a	0	0	0	n/a	n/a	0.0	0	0	0	FR2	1	R1030J
617.924	10.0	869333	COUNTDOWN_START	n/a	n/a	n/a	-999	6	[0, 0, 0]	n/a	0	1	0	n/a	n/a	0.0	0	0	0	FR2	1	R1030J
617.925	10.427	869334	TRIAL	n/a	n/a	n/a	-999	6	[0, 0, 0]	n/a	0	1	0	n/a	n/a	0.0	0	0	0	FR2	1	R1030J
628.352	0.008	879761	COUNTDOWN_END	n/a	n/a	n/a	-999	6	[0, 0, 0]	n/a	0	1	0	n/a	n/a	0.0	0	0	0	FR2	1	R1030J
628.36	1.6	879769	ORIENT	n/a	n/a	n/a	-999	6	[0, 0, 0]	n/a	0	1	0	n/a	n/a	0.0	0	0	0	FR2	1	R1030J
630.586	4.6	881994	STIM_ON	n/a	n/a	n/a	-999	6	[0, 0, 0]	n/a	1	1	4600	LQ1	LQ2	500.0	50	230	300	FR2	1	R1030J
630.796	1.6	882204	WORD	n/a	wordpools/wordpool_EN.txt	VAN	1	6	[0, 0, 0]	n/a	1	1	4600	LQ1	LQ2	500.0	50	230	300	FR2	1	R1030J
633.385	1.6	884793	WORD	n/a	wordpools/wordpool_EN.txt	TRAY	2	6	[0, 0, 0]	n/a	1	1	4600	LQ1	LQ2	500.0	50	230	300	FR2	1	R1030J
635.838	1.6	887246	WORD	n/a	wordpools/wordpool_EN.txt	MAP	3	6	[0, 0, 0]	n/a	0	1	0	n/a	n/a	0.0	0	0	0	FR2	1	R1030J
638.409	1.6	889817	WORD	n/a	wordpools/wordpool_EN.txt	GLOVE	4	6	[0, 0, 0]	n/a	0	1	0	n/a	n/a	0.0	0	0	0	FR2	1	R1030J
640.713	4.6	892121	STIM_ON	n/a	n/a	n/a	-999	6	[0, 0, 0]	n/a	1	1	4600	LQ1	LQ2	500.0	50	230	300	FR2	1	R1030J
640.93	1.6	892338	WORD	n/a	wordpools/wordpool_EN.txt	SPONGE	5	6	[0, 0, 0]	n/a	1	1	4600	LQ1	LQ2	500.0	50	230	300	FR2	1	R1030J
643.484	1.6	894892	WORD	n/a	wordpools/wordpool_EN.txt	SHEET	6	6	[0, 0, 0]	n/a	1	1	4600	LQ1	LQ2	500.0	50	230	300	FR2	1	R1030J
646.072	1.6	897480	WORD	n/a	wordpools/wordpool_EN.txt	SLUSH	7	6	[0, 0, 0]	n/a	0	1	0	n/a	n/a	0.0	0	0	0	FR2	1	R1030J
648.576	1.6	899984	WORD	n/a	wordpools/wordpool_EN.txt	JAIL	8	6	[0, 0, 0]	n/a	0	1	0	n/a	n/a	0.0	0	0	0	FR2	1	R1030J
650.857	4.6	902265	STIM_ON	n/a	n/a	n/a	-999	6	[0, 0, 0]	n/a	1	1	4600	LQ1	LQ2	500.0	50	230	300	FR2	1	R1030J
651.065	1.6	902473	WORD	n/a	wordpools/wordpool_EN.txt	SEAT	9	6	[0, 0, 0]	n/a	1	1	4600	LQ1	LQ2	500.0	50	230	300	FR2	1	R1030J
653.517	1.6	904925	WORD	n/a	wordpools/wordpool_EN.txt	STREET	10	6	[0, 0, 0]	n/a	1	1	4600	LQ1	LQ2	500.0	50	230	300	FR2	1	R1030J
656.038	1.6	907446	WORD	n/a	wordpools/wordpool_EN.txt	TIE	11	6	[0, 0, 0]	n/a	0	1	0	n/a	n/a	0.0	0	0	0	FR2	1	R1030J
658.543	1.6	909951	WORD	n/a	wordpools/wordpool_EN.txt	STICK	12	6	[0, 0, 0]	n/a	0	1	0	n/a	n/a	0.0	0	0	0	FR2	1	R1030J
660.162	0.001	911570	DISTRACT_START	n/a	n/a	n/a	-999	6	[0, 0, 0]	n/a	0	1	0	n/a	n/a	0.0	0	0	0	FR2	1	R1030J
660.163	0.016	911571	START	n/a	n/a	n/a	-999	6	[-999, -999, -999]	n/a	0	1	0	n/a	n/a	0.0	0	0	0	FR2	1	R1030J
660.179	3.223	911587	PROB	3.196	n/a	n/a	-999	6	[1, 8, 9]	18	0	1	0	n/a	n/a	0.0	0	0	0	FR2	1	R1030J
663.402	3.371	914810	PROB	3.332	n/a	n/a	-999	6	[8, 4, 3]	15	0	1	0	n/a	n/a	0.0	0	0	0	FR2	1	R1030J
666.773	4.758	918181	PROB	4.721	n/a	n/a	-999	6	[8, 5, 4]	17	0	1	0	n/a	n/a	0.0	0	0	0	FR2	1	R1030J
671.531	4.257	922939	PROB	4.227	n/a	n/a	-999	6	[7, 6, 5]	18	0	1	0	n/a	n/a	0.0	0	0	0	FR2	1	R1030J
675.788	2.755	927196	PROB	2.722	n/a	n/a	-999	6	[3, 3, 7]	13	0	1	0	n/a	n/a	0.0	0	0	0	FR2	1	R1030J
678.543	2.455	929951	PROB	2.455	n/a	n/a	-999	6	[5, 5, 1]	11	0	1	0	n/a	n/a	0.0	0	0	0	FR2	1	R1030J
680.998	0.016	932406	STOP	n/a	n/a	n/a	-999	6	[-999, -999, -999]	n/a	0	1	0	n/a	n/a	0.0	0	0	0	FR2	1	R1030J
681.014	1.035	932422	DISTRACT_END	n/a	n/a	n/a	-999	6	[0, 0, 0]	n/a	0	1	0	n/a	n/a	0.0	0	0	0	FR2	1	R1030J
682.049	3.019	933457	REC_START	n/a	n/a	n/a	-999	6	[0, 0, 0]	n/a	0	1	0	n/a	n/a	0.0	0	0	0	FR2	1	R1030J
685.068	2.831	936476	REC_WORD	3.019	n/a	JAIL	-999	6	[0, 0, 0]	n/a	0	1	0	n/a	n/a	0.0	0	0	0	FR2	1	R1030J
687.899	3.004	939307	REC_WORD_VV	5.85	n/a	<>	-999	6	[0, 0, 0]	n/a	0	1	0	n/a	n/a	0.0	0	0	0	FR2	1	R1030J
690.903	9.163	942311	REC_WORD	8.854	n/a	MAT	-999	6	[0, 0, 0]	n/a	0	1	0	n/a	n/a	0.0	0	0	0	FR2	1	R1030J
700.066	12.01	951474	REC_WORD	18.017	n/a	GLOVE	-999	6	[0, 0, 0]	n/a	0	1	0	n/a	n/a	0.0	0	0	0	FR2	1	R1030J
712.076	2.345	963484	REC_END	n/a	n/a	n/a	-999	6	[0, 0, 0]	n/a	0	1	0	n/a	n/a	0.0	0	0	0	FR2	1	R1030J
714.421	0.0	965829	TRIAL	n/a	n/a	n/a	-999	7	[0, 0, 0]	n/a	0	1	0	n/a	n/a	0.0	0	0	0	FR2	1	R1030J
714.421	10.0	965829	COUNTDOWN_START	n/a	n/a	n/a	-999	7	[0, 0, 0]	n/a	0	1	0	n/a	n/a	0.0	0	0	0	FR2	1	R1030J
724.849	0.005	976257	COUNTDOWN_END	n/a	n/a	n/a	-999	7	[0, 0, 0]	n/a	0	1	0	n/a	n/a	0.0	0	0	0	FR2	1	R1030J
724.854	1.6	976262	ORIENT	n/a	n/a	n/a	-999	7	[0, 0, 0]	n/a	0	1	0	n/a	n/a	0.0	0	0	0	FR2	1	R1030J
727.044	4.6	978452	STIM_ON	n/a	n/a	n/a	-999	7	[0, 0, 0]	n/a	1	1	4600	LQ1	LQ2	500.0	50	230	300	FR2	1	R1030J
727.259	1.6	978667	WORD	n/a	wordpools/wordpool_EN.txt	CROWN	1	7	[0, 0, 0]	n/a	1	1	4600	LQ1	LQ2	500.0	50	230	300	FR2	1	R1030J
729.846	1.6	981254	WORD	n/a	wordpools/wordpool_EN.txt	TOAST	2	7	[0, 0, 0]	n/a	1	1	4600	LQ1	LQ2	500.0	50	230	300	FR2	1	R1030J
732.434	1.6	983842	WORD	n/a	wordpools/wordpool_EN.txt	LIP	3	7	[0, 0, 0]	n/a	0	1	0	n/a	n/a	0.0	0	0	0	FR2	1	R1030J
735.005	1.6	986413	WORD	n/a	wordpools/wordpool_EN.txt	GOLD	4	7	[0, 0, 0]	n/a	0	1	0	n/a	n/a	0.0	0	0	0	FR2	1	R1030J
737.271	4.6	988679	STIM_ON	n/a	n/a	n/a	-999	7	[0, 0, 0]	n/a	1	1	4600	LQ1	LQ2	500.0	50	230	300	FR2	1	R1030J
737.475	1.6	988883	WORD	n/a	wordpools/wordpool_EN.txt	BAG	5	7	[0, 0, 0]	n/a	1	1	4600	LQ1	LQ2	500.0	50	230	300	FR2	1	R1030J
740.063	1.6	991471	WORD	n/a	wordpools/wordpool_EN.txt	PLATE	6	7	[0, 0, 0]	n/a	1	1	4600	LQ1	LQ2	500.0	50	230	300	FR2	1	R1030J
742.467	1.6	993874	WORD	n/a	wordpools/wordpool_EN.txt	CANE	7	7	[0, 0, 0]	n/a	0	1	0	n/a	n/a	0.0	0	0	0	FR2	1	R1030J
744.871	1.6	996278	WORD	n/a	wordpools/wordpool_EN.txt	FROG	8	7	[0, 0, 0]	n/a	0	1	0	n/a	n/a	0.0	0	0	0	FR2	1	R1030J
747.177	4.6	998584	STIM_ON	n/a	n/a	n/a	-999	7	[0, 0, 0]	n/a	1	1	4600	LQ1	LQ2	500.0	50	230	300	FR2	1	R1030J
747.393	1.6	998800	WORD	n/a	wordpools/wordpool_EN.txt	BLOOM	9	7	[0, 0, 0]	n/a	1	1	4600	LQ1	LQ2	500.0	50	230	300	FR2	1	R1030J
750.013	1.6	1001420	WORD	n/a	wordpools/wordpool_EN.txt	LOCK	10	7	[0, 0, 0]	n/a	1	1	4600	LQ1	LQ2	500.0	50	230	300	FR2	1	R1030J
752.584	1.6	1003991	WORD	n/a	wordpools/wordpool_EN.txt	PIT	11	7	[0, 0, 0]	n/a	0	1	0	n/a	n/a	0.0	0	0	0	FR2	1	R1030J
755.19	1.6	1006597	WORD	n/a	wordpools/wordpool_EN.txt	POLE	12	7	[0, 0, 0]	n/a	0	1	0	n/a	n/a	0.0	0	0	0	FR2	1	R1030J
756.808	0.001	1008215	DISTRACT_START	n/a	n/a	n/a	-999	7	[0, 0, 0]	n/a	0	1	0	n/a	n/a	0.0	0	0	0	FR2	1	R1030J
756.809	0.016	1008216	START	n/a	n/a	n/a	-999	7	[-999, -999, -999]	n/a	0	1	0	n/a	n/a	0.0	0	0	0	FR2	1	R1030J
756.825	7.48	1008232	PROB	7.45	n/a	n/a	-999	7	[9, 6, 7]	22	0	1	0	n/a	n/a	0.0	0	0	0	FR2	1	R1030J
764.305	4.323	1015712	PROB	4.297	n/a	n/a	-999	7	[5, 8, 1]	14	0	1	0	n/a	n/a	0.0	0	0	0	FR2	1	R1030J
768.628	3.957	1020035	PROB	3.933	n/a	n/a	-999	7	[9, 2, 7]	18	0	1	0	n/a	n/a	0.0	0	0	0	FR2	1	R1030J
772.585	2.187	1023992	PROB	2.16	n/a	n/a	-999	7	[2, 4, 2]	8	0	1	0	n/a	n/a	0.0	0	0	0	FR2	1	R1030J
774.772	2.134	1026179	PROB	2.134	n/a	n/a	-999	7	[1, 1, 3]	5	0	1	0	n/a	n/a	0.0	0	0	0	FR2	1	R1030J
776.906	0.019	1028313	STOP	n/a	n/a	n/a	-999	7	[-999, -999, -999]	n/a	0	1	0	n/a	n/a	0.0	0	0	0	FR2	1	R1030J
776.925	1.119	1028332	DISTRACT_END	n/a	n/a	n/a	-999	7	[0, 0, 0]	n/a	0	1	0	n/a	n/a	0.0	0	0	0	FR2	1	R1030J
778.044	16.568	1029451	REC_START	n/a	n/a	n/a	-999	7	[0, 0, 0]	n/a	0	1	0	n/a	n/a	0.0	0	0	0	FR2	1	R1030J
794.612	1.819	1046019	REC_WORD_VV	16.568	n/a	<>	-999	7	[0, 0, 0]	n/a	0	1	0	n/a	n/a	0.0	0	0	0	FR2	1	R1030J
796.431	11.637	1047838	REC_WORD	18.387	n/a	FROG	-999	7	[0, 0, 0]	n/a	0	1	0	n/a	n/a	0.0	0	0	0	FR2	1	R1030J
808.068	2.664	1059475	REC_END	n/a	n/a	n/a	-999	7	[0, 0, 0]	n/a	0	1	0	n/a	n/a	0.0	0	0	0	FR2	1	R1030J
810.732	10.0	1062139	COUNTDOWN_START	n/a	n/a	n/a	-999	8	[0, 0, 0]	n/a	0	1	0	n/a	n/a	0.0	0	0	0	FR2	1	R1030J
810.733	10.427	1062140	TRIAL	n/a	n/a	n/a	-999	8	[0, 0, 0]	n/a	0	1	0	n/a	n/a	0.0	0	0	0	FR2	1	R1030J
821.16	0.006	1072567	COUNTDOWN_END	n/a	n/a	n/a	-999	8	[0, 0, 0]	n/a	0	1	0	n/a	n/a	0.0	0	0	0	FR2	1	R1030J
821.166	1.6	1072573	ORIENT	n/a	n/a	n/a	-999	8	[0, 0, 0]	n/a	0	1	0	n/a	n/a	0.0	0	0	0	FR2	1	R1030J
823.378	4.6	1074785	STIM_ON	n/a	n/a	n/a	-999	8	[0, 0, 0]	n/a	1	1	4600	LQ1	LQ2	500.0	50	230	300	FR2	1	R1030J
823.587	1.6	1074994	WORD	n/a	wordpools/wordpool_EN.txt	CART	1	8	[0, 0, 0]	n/a	1	1	4600	LQ1	LQ2	500.0	50	230	300	FR2	1	R1030J
826.025	1.6	1077432	WORD	n/a	wordpools/wordpool_EN.txt	PEAR	2	8	[0, 0, 0]	n/a	1	1	4600	LQ1	LQ2	500.0	50	230	300	FR2	1	R1030J
828.412	1.6	1079819	WORD	n/a	wordpools/wordpool_EN.txt	VASE	3	8	[0, 0, 0]	n/a	0	1	0	n/a	n/a	0.0	0	0	0	FR2	1	R1030J
830.799	1.6	1082206	WORD	n/a	wordpools/wordpool_EN.txt	AXE	4	8	[0, 0, 0]	n/a	0	1	0	n/a	n/a	0.0	0	0	0	FR2	1	R1030J
833.174	4.6	1084581	STIM_ON	n/a	n/a	n/a	-999	8	[0, 0, 0]	n/a	1	1	4600	LQ1	LQ2	500.0	50	230	300	FR2	1	R1030J
833.388	1.6	1084795	WORD	n/a	wordpools/wordpool_EN.txt	TREE	5	8	[0, 0, 0]	n/a	1	1	4600	LQ1	LQ2	500.0	50	230	300	FR2	1	R1030J
835.791	1.6	1087198	WORD	n/a	wordpools/wordpool_EN.txt	DOOR	6	8	[0, 0, 0]	n/a	1	1	4600	LQ1	LQ2	500.0	50	230	300	FR2	1	R1030J
838.396	1.6	1089803	WORD	n/a	wordpools/wordpool_EN.txt	APE	7	8	[0, 0, 0]	n/a	0	1	0	n/a	n/a	0.0	0	0	0	FR2	1	R1030J
841.016	1.6	1092423	WORD	n/a	wordpools/wordpool_EN.txt	BIRD	8	8	[0, 0, 0]	n/a	0	1	0	n/a	n/a	0.0	0	0	0	FR2	1	R1030J
843.37	4.6	1094777	STIM_ON	n/a	n/a	n/a	-999	8	[0, 0, 0]	n/a	1	1	4600	LQ1	LQ2	500.0	50	230	300	FR2	1	R1030J
843.587	1.6	1094994	WORD	n/a	wordpools/wordpool_EN.txt	LAWN	9	8	[0, 0, 0]	n/a	1	1	4600	LQ1	LQ2	500.0	50	230	300	FR2	1	R1030J
846.209	1.6	1097616	WORD	n/a	wordpools/wordpool_EN.txt	COIN	10	8	[0, 0, 0]	n/a	1	1	4600	LQ1	LQ2	500.0	50	230	300	FR2	1	R1030J
848.696	1.6	1100103	WORD	n/a	wordpools/wordpool_EN.txt	OAK	11	8	[0, 0, 0]	n/a	0	1	0	n/a	n/a	0.0	0	0	0	FR2	1	R1030J
851.167	1.6	1102574	WORD	n/a	wordpools/wordpool_EN.txt	SWAMP	12	8	[0, 0, 0]	n/a	0	1	0	n/a	n/a	0.0	0	0	0	FR2	1	R1030J
852.786	0.001	1104192	DISTRACT_START	n/a	n/a	n/a	-999	8	[0, 0, 0]	n/a	0	1	0	n/a	n/a	0.0	0	0	0	FR2	1	R1030J
852.787	0.016	1104193	START	n/a	n/a	n/a	-999	8	[-999, -999, -999]	n/a	0	1	0	n/a	n/a	0.0	0	0	0	FR2	1	R1030J
852.803	4.14	1104209	PROB	4.115	n/a	n/a	-999	8	[7, 6, 3]	16	0	1	0	n/a	n/a	0.0	0	0	0	FR2	1	R1030J
856.943	2.22	1108349	PROB	2.191	n/a	n/a	-999	8	[3, 6, 3]	12	0	1	0	n/a	n/a	0.0	0	0	0	FR2	1	R1030J
859.163	2.521	1110569	PROB	2.49	n/a	n/a	-999	8	[2, 3, 7]	12	0	1	0	n/a	n/a	0.0	0	0	0	FR2	1	R1030J
861.684	3.456	1113090	PROB	3.417	n/a	n/a	-999	8	[6, 2, 5]	13	0	1	0	n/a	n/a	0.0	0	0	0	FR2	1	R1030J
865.14	2.972	1116546	PROB	2.938	n/a	n/a	-999	8	[9, 3, 6]	18	0	1	0	n/a	n/a	0.0	0	0	0	FR2	1	R1030J
868.112	4.998	1119518	PROB	4.998	n/a	n/a	-999	8	[2, 9, 5]	16	0	1	0	n/a	n/a	0.0	0	0	0	FR2	1	R1030J
873.11	0.01	1124516	STOP	n/a	n/a	n/a	-999	8	[-999, -999, -999]	n/a	0	1	0	n/a	n/a	0.0	0	0	0	FR2	1	R1030J
873.12	1.138	1124526	DISTRACT_END	n/a	n/a	n/a	-999	8	[0, 0, 0]	n/a	0	1	0	n/a	n/a	0.0	0	0	0	FR2	1	R1030J
874.258	13.845	1125664	REC_START	n/a	n/a	n/a	-999	8	[0, 0, 0]	n/a	0	1	0	n/a	n/a	0.0	0	0	0	FR2	1	R1030J
888.103	7.231	1139509	REC_WORD	13.845	n/a	VASE	-999	8	[0, 0, 0]	n/a	0	1	0	n/a	n/a	0.0	0	0	0	FR2	1	R1030J
895.334	5.098	1146740	REC_WORD	21.076	n/a	GOLD	-999	8	[0, 0, 0]	n/a	0	1	0	n/a	n/a	0.0	0	0	0	FR2	1	R1030J
900.432	2.383	1151838	REC_WORD	26.174	n/a	FLOOR	-999	8	[0, 0, 0]	n/a	0	1	0	n/a	n/a	0.0	0	0	0	FR2	1	R1030J
902.815	1.458	1154221	REC_WORD	28.557	n/a	AXE	-999	8	[0, 0, 0]	n/a	0	1	0	n/a	n/a	0.0	0	0	0	FR2	1	R1030J
904.273	3.389	1155679	REC_END	n/a	n/a	n/a	-999	8	[0, 0, 0]	n/a	0	1	0	n/a	n/a	0.0	0	0	0	FR2	1	R1030J
907.662	0.0	1159068	TRIAL	n/a	n/a	n/a	-999	9	[0, 0, 0]	n/a	0	1	0	n/a	n/a	0.0	0	0	0	FR2	1	R1030J
907.662	10.0	1159068	COUNTDOWN_START	n/a	n/a	n/a	-999	9	[0, 0, 0]	n/a	0	1	0	n/a	n/a	0.0	0	0	0	FR2	1	R1030J
918.09	0.006	1169496	COUNTDOWN_END	n/a	n/a	n/a	-999	9	[0, 0, 0]	n/a	0	1	0	n/a	n/a	0.0	0	0	0	FR2	1	R1030J
918.096	1.6	1169502	ORIENT	n/a	n/a	n/a	-999	9	[0, 0, 0]	n/a	0	1	0	n/a	n/a	0.0	0	0	0	FR2	1	R1030J
920.617	1.6	1172023	WORD	n/a	wordpools/wordpool_EN.txt	SOUP	1	9	[0, 0, 0]	n/a	0	1	0	n/a	n/a	0.0	0	0	0	FR2	1	R1030J
923.189	1.6	1174595	WORD	n/a	wordpools/wordpool_EN.txt	CASH	2	9	[0, 0, 0]	n/a	0	1	0	n/a	n/a	0.0	0	0	0	FR2	1	R1030J
925.449	4.6	1176855	STIM_ON	n/a	n/a	n/a	-999	9	[0, 0, 0]	n/a	1	1	4600	LQ1	LQ2	500.0	50	230	300	FR2	1	R1030J
925.659	1.6	1177065	WORD	n/a	wordpools/wordpool_EN.txt	PALM	3	9	[0, 0, 0]	n/a	1	1	4600	LQ1	LQ2	500.0	50	230	300	FR2	1	R1030J
928.063	1.6	1179469	WORD	n/a	wordpools/wordpool_EN.txt	KEY	4	9	[0, 0, 0]	n/a	1	1	4600	LQ1	LQ2	500.0	50	230	300	FR2	1	R1030J
930.584	1.6	1181990	WORD	n/a	wordpools/wordpool_EN.txt	WEB	5	9	[0, 0, 0]	n/a	0	1	0	n/a	n/a	0.0	0	0	0	FR2	1	R1030J
933.171	1.6	1184577	WORD	n/a	wordpools/wordpool_EN.txt	NET	6	9	[0, 0, 0]	n/a	0	1	0	n/a	n/a	0.0	0	0	0	FR2	1	R1030J
935.492	4.6	1186898	STIM_ON	n/a	n/a	n/a	-999	9	[0, 0, 0]	n/a	1	1	4600	LQ1	LQ2	500.0	50	230	300	FR2	1	R1030J
935.709	1.6	1187115	WORD	n/a	wordpools/wordpool_EN.txt	OAR	7	9	[0, 0, 0]	n/a	1	1	4600	LQ1	LQ2	500.0	50	230	300	FR2	1	R1030J
938.13	1.6	1189536	WORD	n/a	wordpools/wordpool_EN.txt	MILK	8	9	[0, 0, 0]	n/a	1	1	4600	LQ1	LQ2	500.0	50	230	300	FR2	1	R1030J
940.517	1.6	1191923	WORD	n/a	wordpools/wordpool_EN.txt	HAWK	9	9	[0, 0, 0]	n/a	0	1	0	n/a	n/a	0.0	0	0	0	FR2	1	R1030J
943.038	1.6	1194444	WORD	n/a	wordpools/wordpool_EN.txt	PLANT	10	9	[0, 0, 0]	n/a	0	1	0	n/a	n/a	0.0	0	0	0	FR2	1	R1030J
945.451	4.6	1196857	STIM_ON	n/a	n/a	n/a	-999	9	[0, 0, 0]	n/a	1	1	4600	LQ1	LQ2	500.0	50	230	300	FR2	1	R1030J
945.66	1.6	1197066	WORD	n/a	wordpools/wordpool_EN.txt	BAT	11	9	[0, 0, 0]	n/a	1	1	4600	LQ1	LQ2	500.0	50	230	300	FR2	1	R1030J
948.063	1.6	1199469	WORD	n/a	wordpools/wordpool_EN.txt	CAKE	12	9	[0, 0, 0]	n/a	1	1	4600	LQ1	LQ2	500.0	50	230	300	FR2	1	R1030J
949.682	0.001	1201088	DISTRACT_START	n/a	n/a	n/a	-999	9	[0, 0, 0]	n/a	1	1	4600	LQ1	LQ2	500.0	50	230	300	FR2	1	R1030J
949.683	0.016	1201089	START	n/a	n/a	n/a	-999	9	[-999, -999, -999]	n/a	0	1	0	n/a	n/a	0.0	0	0	0	FR2	1	R1030J
949.699	9.833	1201105	PROB	9.805	n/a	n/a	-999	9	[7, 4, 8]	19	0	1	0	n/a	n/a	0.0	0	0	0	FR2	1	R1030J
959.532	3.456	1210938	PROB	3.42	n/a	n/a	-999	9	[4, 2, 2]	8	0	1	0	n/a	n/a	0.0	0	0	0	FR2	1	R1030J
962.988	5.61	1214393	PROB	5.571	n/a	n/a	-999	9	[9, 7, 6]	22	0	1	0	n/a	n/a	0.0	0	0	0	FR2	1	R1030J
968.598	4.024	1220003	PROB	4.024	n/a	n/a	-999	9	[3, 7, 8]	18	0	1	0	n/a	n/a	0.0	0	0	0	FR2	1	R1030J
972.622	0.016	1224027	STOP	n/a	n/a	n/a	-999	9	[-999, -999, -999]	n/a	0	1	0	n/a	n/a	0.0	0	0	0	FR2	1	R1030J
972.638	1.153	1224043	DISTRACT_END	n/a	n/a	n/a	-999	9	[0, 0, 0]	n/a	0	1	0	n/a	n/a	0.0	0	0	0	FR2	1	R1030J
973.791	5.116	1225196	REC_START	n/a	n/a	n/a	-999	9	[0, 0, 0]	n/a	0	1	0	n/a	n/a	0.0	0	0	0	FR2	1	R1030J
978.907	13.071	1230312	REC_WORD	5.116	n/a	BAT	-999	9	[0, 0, 0]	n/a	0	1	0	n/a	n/a	0.0	0	0	0	FR2	1	R1030J
991.978	4.467	1243383	REC_WORD	18.187	n/a	VASE	-999	9	[0, 0, 0]	n/a	0	1	0	n/a	n/a	0.0	0	0	0	FR2	1	R1030J
996.445	1.629	1247850	REC_WORD_VV	22.654	n/a	<>	-999	9	[0, 0, 0]	n/a	0	1	0	n/a	n/a	0.0	0	0	0	FR2	1	R1030J
998.074	5.732	1249479	REC_WORD	24.283	n/a	TRUCK	-999	9	[0, 0, 0]	n/a	0	1	0	n/a	n/a	0.0	0	0	0	FR2	1	R1030J
1003.806	2.105	1255211	REC_END	n/a	n/a	n/a	-999	9	[0, 0, 0]	n/a	0	1	0	n/a	n/a	0.0	0	0	0	FR2	1	R1030J
1005.911	0.0	1257316	TRIAL	n/a	n/a	n/a	-999	10	[0, 0, 0]	n/a	0	0	0	n/a	n/a	0.0	0	0	0	FR2	1	R1030J
1005.911	10.0	1257316	COUNTDOWN_START	n/a	n/a	n/a	-999	10	[0, 0, 0]	n/a	0	0	0	n/a	n/a	0.0	0	0	0	FR2	1	R1030J
1016.339	0.007	1267744	COUNTDOWN_END	n/a	n/a	n/a	-999	10	[0, 0, 0]	n/a	0	0	0	n/a	n/a	0.0	0	0	0	FR2	1	R1030J
1016.346	1.6	1267751	ORIENT	n/a	n/a	n/a	-999	10	[0, 0, 0]	n/a	0	0	0	n/a	n/a	0.0	0	0	0	FR2	1	R1030J
1018.782	1.6	1270187	WORD	n/a	wordpools/wordpool_EN.txt	DOG	1	10	[0, 0, 0]	n/a	0	0	0	n/a	n/a	0.0	0	0	0	FR2	1	R1030J
1021.304	1.6	1272709	WORD	n/a	wordpools/wordpool_EN.txt	WOOD	2	10	[0, 0, 0]	n/a	0	0	0	n/a	n/a	0.0	0	0	0	FR2	1	R1030J
1023.857	1.6	1275262	WORD	n/a	wordpools/wordpool_EN.txt	EEL	3	10	[0, 0, 0]	n/a	0	0	0	n/a	n/a	0.0	0	0	0	FR2	1	R1030J
1026.396	1.6	1277801	WORD	n/a	wordpools/wordpool_EN.txt	FOAM	4	10	[0, 0, 0]	n/a	0	0	0	n/a	n/a	0.0	0	0	0	FR2	1	R1030J
1028.799	1.6	1280204	WORD	n/a	wordpools/wordpool_EN.txt	MAIL	5	10	[0, 0, 0]	n/a	0	0	0	n/a	n/a	0.0	0	0	0	FR2	1	R1030J
1031.221	1.6	1282626	WORD	n/a	wordpools/wordpool_EN.txt	WOLF	6	10	[0, 0, 0]	n/a	0	0	0	n/a	n/a	0.0	0	0	0	FR2	1	R1030J
1033.824	1.6	1285229	WORD	n/a	wordpools/wordpool_EN.txt	LAND	7	10	[0, 0, 0]	n/a	0	0	0	n/a	n/a	0.0	0	0	0	FR2	1	R1030J
1036.212	1.6	1287617	WORD	n/a	wordpools/wordpool_EN.txt	WHEEL	8	10	[0, 0, 0]	n/a	0	0	0	n/a	n/a	0.0	0	0	0	FR2	1	R1030J
1038.833	1.6	1290238	WORD	n/a	wordpools/wordpool_EN.txt	CHALK	9	10	[0, 0, 0]	n/a	0	0	0	n/a	n/a	0.0	0	0	0	FR2	1	R1030J
1041.404	1.6	1292809	WORD	n/a	wordpools/wordpool_EN.txt	TAIL	10	10	[0, 0, 0]	n/a	0	0	0	n/a	n/a	0.0	0	0	0	FR2	1	R1030J
1043.958	1.6	1295363	WORD	n/a	wordpools/wordpool_EN.txt	SIGN	11	10	[0, 0, 0]	n/a	0	0	0	n/a	n/a	0.0	0	0	0	FR2	1	R1030J
1046.579	1.6	1297984	WORD	n/a	wordpools/wordpool_EN.txt	TANK	12	10	[0, 0, 0]	n/a	0	0	0	n/a	n/a	0.0	0	0	0	FR2	1	R1030J
1048.199	0.001	1299604	DISTRACT_START	n/a	n/a	n/a	-999	10	[0, 0, 0]	n/a	0	0	0	n/a	n/a	0.0	0	0	0	FR2	1	R1030J
1048.2	0.016	1299605	START	n/a	n/a	n/a	-999	10	[-999, -999, -999]	n/a	0	0	0	n/a	n/a	0.0	0	0	0	FR2	1	R1030J
1048.216	4.54	1299621	PROB	4.504	n/a	n/a	-999	10	[7, 9, 9]	25	0	0	0	n/a	n/a	0.0	0	0	0	FR2	1	R1030J
1052.756	2.404	1304161	PROB	2.372	n/a	n/a	-999	10	[1, 2, 9]	12	0	0	0	n/a	n/a	0.0	0	0	0	FR2	1	R1030J
1055.16	2.604	1306565	PROB	2.576	n/a	n/a	-999	10	[7, 1, 2]	10	0	0	0	n/a	n/a	0.0	0	0	0	FR2	1	R1030J
1057.764	2.321	1309169	PROB	2.292	n/a	n/a	-999	10	[1, 8, 7]	16	0	0	0	n/a	n/a	0.0	0	0	0	FR2	1	R1030J
1060.085	2.805	1311490	PROB	2.779	n/a	n/a	-999	10	[1, 5, 2]	8	0	0	0	n/a	n/a	0.0	0	0	0	FR2	1	R1030J
1062.89	4.056	1314295	PROB	4.03	n/a	n/a	-999	10	[5, 2, 3]	10	0	0	0	n/a	n/a	0.0	0	0	0	FR2	1	R1030J
1066.946	2.742	1318351	PROB	2.742	n/a	n/a	-999	10	[7, 5, 1]	13	0	0	0	n/a	n/a	0.0	0	0	0	FR2	1	R1030J
1069.688	0.013	1321093	STOP	n/a	n/a	n/a	-999	10	[-999, -999, -999]	n/a	0	0	0	n/a	n/a	0.0	0	0	0	FR2	1	R1030J
1069.701	1.136	1321106	DISTRACT_END	n/a	n/a	n/a	-999	10	[0, 0, 0]	n/a	0	0	0	n/a	n/a	0.0	0	0	0	FR2	1	R1030J
1070.837	2.533	1322242	REC_START	n/a	n/a	n/a	-999	10	[0, 0, 0]	n/a	0	0	0	n/a	n/a	0.0	0	0	0	FR2	1	R1030J
1073.37	1.62	1324774	REC_WORD	2.533	n/a	DOG	-999	10	[0, 0, 0]	n/a	0	0	0	n/a	n/a	0.0	0	0	0	FR2	1	R1030J
1074.99	4.337	1326394	REC_WORD	4.153	n/a	TAIL	-999	10	[0, 0, 0]	n/a	0	0	0	n/a	n/a	0.0	0	0	0	FR2	1	R1030J
1079.327	5.494	1330731	REC_WORD	8.49	n/a	EEL	-999	10	[0, 0, 0]	n/a	0	0	0	n/a	n/a	0.0	0	0	0	FR2	1	R1030J
1084.821	16.031	1336225	REC_WORD	13.984	n/a	ICE	-999	10	[0, 0, 0]	n/a	0	0	0	n/a	n/a	0.0	0	0	0	FR2	1	R1030J
1100.852	2.406	1352256	REC_END	n/a	n/a	n/a	-999	10	[0, 0, 0]	n/a	0	0	0	n/a	n/a	0.0	0	0	0	FR2	1	R1030J
1103.258	10.0	1354662	COUNTDOWN_START	n/a	n/a	n/a	-999	11	[0, 0, 0]	n/a	0	1	0	n/a	n/a	0.0	0	0	0	FR2	1	R1030J
1103.259	10.427	1354663	TRIAL	n/a	n/a	n/a	-999	11	[0, 0, 0]	n/a	0	1	0	n/a	n/a	0.0	0	0	0	FR2	1	R1030J
1113.686	0.006	1365090	COUNTDOWN_END	n/a	n/a	n/a	-999	11	[0, 0, 0]	n/a	0	1	0	n/a	n/a	0.0	0	0	0	FR2	1	R1030J
1113.692	1.6	1365096	ORIENT	n/a	n/a	n/a	-999	11	[0, 0, 0]	n/a	0	1	0	n/a	n/a	0.0	0	0	0	FR2	1	R1030J
1115.918	4.6	1367322	STIM_ON	n/a	n/a	n/a	-999	11	[0, 0, 0]	n/a	1	1	4600	LQ1	LQ2	500.0	50	230	300	FR2	1	R1030J
1116.129	1.6	1367533	WORD	n/a	wordpools/wordpool_EN.txt	EAR	1	11	[0, 0, 0]	n/a	1	1	4600	LQ1	LQ2	500.0	50	230	300	FR2	1	R1030J
1118.583	1.6	1369987	WORD	n/a	wordpools/wordpool_EN.txt	HOSE	2	11	[0, 0, 0]	n/a	1	1	4600	LQ1	LQ2	500.0	50	230	300	FR2	1	R1030J
1121.054	1.6	1372458	WORD	n/a	wordpools/wordpool_EN.txt	BEE	3	11	[0, 0, 0]	n/a	0	1	0	n/a	n/a	0.0	0	0	0	FR2	1	R1030J
1123.675	1.6	1375079	WORD	n/a	wordpools/wordpool_EN.txt	JAR	4	11	[0, 0, 0]	n/a	0	1	0	n/a	n/a	0.0	0	0	0	FR2	1	R1030J
1125.975	4.6	1377379	STIM_ON	n/a	n/a	n/a	-999	11	[0, 0, 0]	n/a	1	1	4600	LQ1	LQ2	500.0	50	230	300	FR2	1	R1030J
1126.18	1.6	1377584	WORD	n/a	wordpools/wordpool_EN.txt	DRESS	5	11	[0, 0, 0]	n/a	1	1	4600	LQ1	LQ2	500.0	50	230	300	FR2	1	R1030J
1128.767	1.6	1380171	WORD	n/a	wordpools/wordpool_EN.txt	TOOL	6	11	[0, 0, 0]	n/a	1	1	4600	LQ1	LQ2	500.0	50	230	300	FR2	1	R1030J
1131.323	1.6	1382727	WORD	n/a	wordpools/wordpool_EN.txt	CAGE	7	11	[0, 0, 0]	n/a	0	1	0	n/a	n/a	0.0	0	0	0	FR2	1	R1030J
1133.792	1.6	1385196	WORD	n/a	wordpools/wordpool_EN.txt	BRUSH	8	11	[0, 0, 0]	n/a	0	1	0	n/a	n/a	0.0	0	0	0	FR2	1	R1030J
1136.103	4.6	1387507	STIM_ON	n/a	n/a	n/a	-999	11	[0, 0, 0]	n/a	1	1	4600	LQ1	LQ2	500.0	50	230	300	FR2	1	R1030J
1136.314	1.6	1387718	WORD	n/a	wordpools/wordpool_EN.txt	SHIELD	9	11	[0, 0, 0]	n/a	1	1	4600	LQ1	LQ2	500.0	50	230	300	FR2	1	R1030J
1138.817	1.6	1390221	WORD	n/a	wordpools/wordpool_EN.txt	CLIFF	10	11	[0, 0, 0]	n/a	1	1	4600	LQ1	LQ2	500.0	50	230	300	FR2	1	R1030J
1141.356	1.6	1392760	WORD	n/a	wordpools/wordpool_EN.txt	DART	11	11	[0, 0, 0]	n/a	0	1	0	n/a	n/a	0.0	0	0	0	FR2	1	R1030J
1143.943	1.6	1395347	WORD	n/a	wordpools/wordpool_EN.txt	COW	12	11	[0, 0, 0]	n/a	0	1	0	n/a	n/a	0.0	0	0	0	FR2	1	R1030J
1145.562	0.001	1396966	DISTRACT_START	n/a	n/a	n/a	-999	11	[0, 0, 0]	n/a	0	1	0	n/a	n/a	0.0	0	0	0	FR2	1	R1030J
1145.563	0.016	1396967	START	n/a	n/a	n/a	-999	11	[-999, -999, -999]	n/a	0	1	0	n/a	n/a	0.0	0	0	0	FR2	1	R1030J
1145.579	4.491	1396983	PROB	4.458	n/a	n/a	-999	11	[8, 2, 5]	15	0	1	0	n/a	n/a	0.0	0	0	0	FR2	1	R1030J
1150.07	3.323	1401474	PROB	3.296	n/a	n/a	-999	11	[3, 2, 1]	6	0	1	0	n/a	n/a	0.0	0	0	0	FR2	1	R1030J
1153.393	2.922	1404797	PROB	2.885	n/a	n/a	-999	11	[9, 2, 5]	16	0	1	0	n/a	n/a	0.0	0	0	0	FR2	1	R1030J
1156.315	2.62	1407719	PROB	2.586	n/a	n/a	-999	11	[3, 4, 4]	11	0	1	0	n/a	n/a	0.0	0	0	0	FR2	1	R1030J
1158.935	2.621	1410339	PROB	2.59	n/a	n/a	-999	11	[3, 1, 2]	6	0	1	0	n/a	n/a	0.0	0	0	0	FR2	1	R1030J
1161.556	2.554	1412960	PROB	2.52	n/a	n/a	-999	11	[2, 2, 9]	13	0	1	0	n/a	n/a	0.0	0	0	0	FR2	1	R1030J
1164.11	3.494	1415514	PROB	3.494	n/a	n/a	-999	11	[7, 5, 7]	19	0	1	0	n/a	n/a	0.0	0	0	0	FR2	1	R1030J
1167.604	0.012	1419008	STOP	n/a	n/a	n/a	-999	11	[-999, -999, -999]	n/a	0	1	0	n/a	n/a	0.0	0	0	0	FR2	1	R1030J
1167.616	1.086	1419020	DISTRACT_END	n/a	n/a	n/a	-999	11	[0, 0, 0]	n/a	0	1	0	n/a	n/a	0.0	0	0	0	FR2	1	R1030J
1168.702	3.32	1420106	REC_START	n/a	n/a	n/a	-999	11	[0, 0, 0]	n/a	0	1	0	n/a	n/a	0.0	0	0	0	FR2	1	R1030J
1172.022	0.859	1423426	REC_WORD_VV	3.32	n/a	<>	-999	11	[0, 0, 0]	n/a	0	1	0	n/a	n/a	0.0	0	0	0	FR2	1	R1030J
1172.881	1.392	1424285	REC_WORD	4.179	n/a	JAR	-999	11	[0, 0, 0]	n/a	0	1	0	n/a	n/a	0.0	0	0	0	FR2	1	R1030J
1174.273	4.765	1425677	REC_WORD	5.571	n/a	BEE	-999	11	[0, 0, 0]	n/a	0	1	0	n/a	n/a	0.0	0	0	0	FR2	1	R1030J
1179.038	10.711	1430442	REC_WORD	10.336	n/a	DRESS	-999	11	[0, 0, 0]	n/a	0	1	0	n/a	n/a	0.0	0	0	0	FR2	1	R1030J
1189.749	4.569	1441152	REC_WORD	21.047	n/a	VEST	-999	11	[0, 0, 0]	n/a	0	1	0	n/a	n/a	0.0	0	0	0	FR2	1	R1030J
1194.318	4.403	1445721	REC_WORD_VV	25.616	n/a	<>	-999	11	[0, 0, 0]	n/a	0	1	0	n/a	n/a	0.0	0	0	0	FR2	1	R1030J
1198.721	2.134	1450124	REC_END	n/a	n/a	n/a	-999	11	[0, 0, 0]	n/a	0	1	0	n/a	n/a	0.0	0	0	0	FR2	1	R1030J
1200.855	10.0	1452258	COUNTDOWN_START	n/a	n/a	n/a	-999	12	[0, 0, 0]	n/a	0	0	0	n/a	n/a	0.0	0	0	0	FR2	1	R1030J
1200.856	10.427	1452259	TRIAL	n/a	n/a	n/a	-999	12	[0, 0, 0]	n/a	0	0	0	n/a	n/a	0.0	0	0	0	FR2	1	R1030J
1211.283	0.007	1462686	COUNTDOWN_END	n/a	n/a	n/a	-999	12	[0, 0, 0]	n/a	0	0	0	n/a	n/a	0.0	0	0	0	FR2	1	R1030J
1211.29	1.6	1462693	ORIENT	n/a	n/a	n/a	-999	12	[0, 0, 0]	n/a	0	0	0	n/a	n/a	0.0	0	0	0	FR2	1	R1030J
1213.693	1.6	1465096	WORD	n/a	wordpools/wordpool_EN.txt	SEAL	1	12	[0, 0, 0]	n/a	0	0	0	n/a	n/a	0.0	0	0	0	FR2	1	R1030J
1216.299	1.6	1467702	WORD	n/a	wordpools/wordpool_EN.txt	WING	2	12	[0, 0, 0]	n/a	0	0	0	n/a	n/a	0.0	0	0	0	FR2	1	R1030J
1218.735	1.6	1470138	WORD	n/a	wordpools/wordpool_EN.txt	BED	3	12	[0, 0, 0]	n/a	0	0	0	n/a	n/a	0.0	0	0	0	FR2	1	R1030J
1221.274	1.6	1472677	WORD	n/a	wordpools/wordpool_EN.txt	PANTS	4	12	[0, 0, 0]	n/a	0	0	0	n/a	n/a	0.0	0	0	0	FR2	1	R1030J
1223.827	1.6	1475230	WORD	n/a	wordpools/wordpool_EN.txt	FOX	5	12	[0, 0, 0]	n/a	0	0	0	n/a	n/a	0.0	0	0	0	FR2	1	R1030J
1226.431	1.6	1477834	WORD	n/a	wordpools/wordpool_EN.txt	FLAME	6	12	[0, 0, 0]	n/a	0	0	0	n/a	n/a	0.0	0	0	0	FR2	1	R1030J
1228.952	1.6	1480355	WORD	n/a	wordpools/wordpool_EN.txt	SHRIMP	7	12	[0, 0, 0]	n/a	0	0	0	n/a	n/a	0.0	0	0	0	FR2	1	R1030J
1231.44	1.6	1482843	WORD	n/a	wordpools/wordpool_EN.txt	CAR	8	12	[0, 0, 0]	n/a	0	0	0	n/a	n/a	0.0	0	0	0	FR2	1	R1030J
1234.044	1.6	1485447	WORD	n/a	wordpools/wordpool_EN.txt	BOMB	9	12	[0, 0, 0]	n/a	0	0	0	n/a	n/a	0.0	0	0	0	FR2	1	R1030J
1236.482	1.6	1487885	WORD	n/a	wordpools/wordpool_EN.txt	STORM	10	12	[0, 0, 0]	n/a	0	0	0	n/a	n/a	0.0	0	0	0	FR2	1	R1030J
1239.086	1.6	1490489	WORD	n/a	wordpools/wordpool_EN.txt	PIPE	11	12	[0, 0, 0]	n/a	0	0	0	n/a	n/a	0.0	0	0	0	FR2	1	R1030J
1241.473	1.6	1492876	WORD	n/a	wordpools/wordpool_EN.txt	WORLD	12	12	[0, 0, 0]	n/a	0	0	0	n/a	n/a	0.0	0	0	0	FR2	1	R1030J
1243.093	0.001	1494496	DISTRACT_START	n/a	n/a	n/a	-999	12	[0, 0, 0]	n/a	0	0	0	n/a	n/a	0.0	0	0	0	FR2	1	R1030J
1243.094	0.016	1494497	START	n/a	n/a	n/a	-999	12	[-999, -999, -999]	n/a	0	0	0	n/a	n/a	0.0	0	0	0	FR2	1	R1030J
1243.11	4.357	1494513	PROB	4.329	n/a	n/a	-999	12	[7, 5, 6]	18	0	0	0	n/a	n/a	0.0	0	0	0	FR2	1	R1030J
1247.467	2.103	1498870	PROB	2.083	n/a	n/a	-999	12	[6, 3, 3]	12	0	0	0	n/a	n/a	0.0	0	0	0	FR2	1	R1030J
1249.57	2.087	1500973	PROB	2.053	n/a	n/a	-999	12	[1, 1, 8]	10	0	0	0	n/a	n/a	0.0	0	0	0	FR2	1	R1030J
1251.657	6.878	1503060	PROB	6.852	n/a	n/a	-999	12	[6, 9, 2]	17	0	0	0	n/a	n/a	0.0	0	0	0	FR2	1	R1030J
1258.535	5.38	1509938	PROB	5.38	n/a	n/a	-999	12	[9, 3, 8]	20	0	0	0	n/a	n/a	0.0	0	0	0	FR2	1	R1030J
1263.915	0.013	1515318	STOP	n/a	n/a	n/a	-999	12	[-999, -999, -999]	n/a	0	0	0	n/a	n/a	0.0	0	0	0	FR2	1	R1030J
1263.928	1.052	1515331	DISTRACT_END	n/a	n/a	n/a	-999	12	[0, 0, 0]	n/a	0	0	0	n/a	n/a	0.0	0	0	0	FR2	1	R1030J
1264.98	19.896	1516383	REC_START	n/a	n/a	n/a	-999	12	[0, 0, 0]	n/a	0	0	0	n/a	n/a	0.0	0	0	0	FR2	1	R1030J
1284.876	1.426	1536279	REC_WORD	19.896	n/a	OAR	-999	12	[0, 0, 0]	n/a	0	0	0	n/a	n/a	0.0	0	0	0	FR2	1	R1030J
1286.302	8.703	1537705	REC_WORD	21.322	n/a	WOOD	-999	12	[0, 0, 0]	n/a	0	0	0	n/a	n/a	0.0	0	0	0	FR2	1	R1030J
1295.005	1.93	1546407	REC_END	n/a	n/a	n/a	-999	12	[0, 0, 0]	n/a	0	0	0	n/a	n/a	0.0	0	0	0	FR2	1	R1030J
1296.935	0.0	1548337	TRIAL	n/a	n/a	n/a	-999	13	[0, 0, 0]	n/a	0	1	0	n/a	n/a	0.0	0	0	0	FR2	1	R1030J
1296.935	10.0	1548337	COUNTDOWN_START	n/a	n/a	n/a	-999	13	[0, 0, 0]	n/a	0	1	0	n/a	n/a	0.0	0	0	0	FR2	1	R1030J
1307.363	0.006	1558765	COUNTDOWN_END	n/a	n/a	n/a	-999	13	[0, 0, 0]	n/a	0	1	0	n/a	n/a	0.0	0	0	0	FR2	1	R1030J
1307.369	1.6	1558771	ORIENT	n/a	n/a	n/a	-999	13	[0, 0, 0]	n/a	0	1	0	n/a	n/a	0.0	0	0	0	FR2	1	R1030J
1309.839	1.6	1561241	WORD	n/a	wordpools/wordpool_EN.txt	OWL	1	13	[0, 0, 0]	n/a	0	1	0	n/a	n/a	0.0	0	0	0	FR2	1	R1030J
1312.31	1.6	1563712	WORD	n/a	wordpools/wordpool_EN.txt	SINK	2	13	[0, 0, 0]	n/a	0	1	0	n/a	n/a	0.0	0	0	0	FR2	1	R1030J
1314.73	4.6	1566132	STIM_ON	n/a	n/a	n/a	-999	13	[0, 0, 0]	n/a	1	1	4600	LQ1	LQ2	500.0	50	230	300	FR2	1	R1030J
1314.947	1.6	1566349	WORD	n/a	wordpools/wordpool_EN.txt	BENCH	3	13	[0, 0, 0]	n/a	1	1	4600	LQ1	LQ2	500.0	50	230	300	FR2	1	R1030J
1317.352	1.6	1568754	WORD	n/a	wordpools/wordpool_EN.txt	NEST	4	13	[0, 0, 0]	n/a	1	1	4600	LQ1	LQ2	500.0	50	230	300	FR2	1	R1030J
1319.889	1.6	1571291	WORD	n/a	wordpools/wordpool_EN.txt	TEA	5	13	[0, 0, 0]	n/a	0	1	0	n/a	n/a	0.0	0	0	0	FR2	1	R1030J
1322.394	1.6	1573796	WORD	n/a	wordpools/wordpool_EN.txt	BOAT	6	13	[0, 0, 0]	n/a	0	1	0	n/a	n/a	0.0	0	0	0	FR2	1	R1030J
1324.806	4.6	1576208	STIM_ON	n/a	n/a	n/a	-999	13	[0, 0, 0]	n/a	1	1	4600	LQ1	LQ2	500.0	50	230	300	FR2	1	R1030J
1325.014	1.6	1576416	WORD	n/a	wordpools/wordpool_EN.txt	ANT	7	13	[0, 0, 0]	n/a	1	1	4600	LQ1	LQ2	500.0	50	230	300	FR2	1	R1030J
1327.435	1.6	1578837	WORD	n/a	wordpools/wordpool_EN.txt	ELF	8	13	[0, 0, 0]	n/a	1	1	4600	LQ1	LQ2	500.0	50	230	300	FR2	1	R1030J
1330.006	1.6	1581408	WORD	n/a	wordpools/wordpool_EN.txt	WAVE	9	13	[0, 0, 0]	n/a	0	1	0	n/a	n/a	0.0	0	0	0	FR2	1	R1030J
1332.593	1.6	1583995	WORD	n/a	wordpools/wordpool_EN.txt	NOSE	10	13	[0, 0, 0]	n/a	0	1	0	n/a	n/a	0.0	0	0	0	FR2	1	R1030J
1334.908	4.6	1586310	STIM_ON	n/a	n/a	n/a	-999	13	[0, 0, 0]	n/a	1	1	4600	LQ1	LQ2	500.0	50	230	300	FR2	1	R1030J
1335.114	1.6	1586516	WORD	n/a	wordpools/wordpool_EN.txt	TRASH	11	13	[0, 0, 0]	n/a	1	1	4600	LQ1	LQ2	500.0	50	230	300	FR2	1	R1030J
1337.603	1.6	1589005	WORD	n/a	wordpools/wordpool_EN.txt	FOG	12	13	[0, 0, 0]	n/a	1	1	4600	LQ1	LQ2	500.0	50	230	300	FR2	1	R1030J
1339.222	0.001	1590624	DISTRACT_START	n/a	n/a	n/a	-999	13	[0, 0, 0]	n/a	1	1	4600	LQ1	LQ2	500.0	50	230	300	FR2	1	R1030J
1339.223	0.016	1590625	START	n/a	n/a	n/a	-999	13	[-999, -999, -999]	n/a	0	1	0	n/a	n/a	0.0	0	0	0	FR2	1	R1030J
1339.239	6.962	1590641	PROB	6.934	n/a	n/a	-999	13	[7, 9, 7]	23	0	1	0	n/a	n/a	0.0	0	0	0	FR2	1	R1030J
1346.201	2.486	1597603	PROB	2.46	n/a	n/a	-999	13	[4, 6, 3]	13	0	1	0	n/a	n/a	0.0	0	0	0	FR2	1	R1030J
1348.687	3.356	1600089	PROB	3.318	n/a	n/a	-999	13	[8, 8, 7]	23	0	1	0	n/a	n/a	0.0	0	0	0	FR2	1	R1030J
1352.043	2.355	1603445	PROB	2.323	n/a	n/a	-999	13	[4, 1, 2]	7	0	1	0	n/a	n/a	0.0	0	0	0	FR2	1	R1030J
1354.398	2.486	1605800	PROB	2.463	n/a	n/a	-999	13	[3, 2, 7]	12	0	1	0	n/a	n/a	0.0	0	0	0	FR2	1	R1030J
1356.884	2.648	1608286	PROB	2.648	n/a	n/a	-999	13	[6, 6, 8]	20	0	1	0	n/a	n/a	0.0	0	0	0	FR2	1	R1030J
1359.532	0.007	1610934	STOP	n/a	n/a	n/a	-999	13	[-999, -999, -999]	n/a	0	1	0	n/a	n/a	0.0	0	0	0	FR2	1	R1030J
1359.539	1.086	1610941	DISTRACT_END	n/a	n/a	n/a	-999	13	[0, 0, 0]	n/a	0	1	0	n/a	n/a	0.0	0	0	0	FR2	1	R1030J
1360.625	2.579	1612027	REC_START	n/a	n/a	n/a	-999	13	[0, 0, 0]	n/a	0	1	0	n/a	n/a	0.0	0	0	0	FR2	1	R1030J
1363.204	8.552	1614606	REC_WORD	2.579	n/a	FOG	-999	13	[0, 0, 0]	n/a	0	1	0	n/a	n/a	0.0	0	0	0	FR2	1	R1030J
1371.756	8.131	1623158	REC_WORD	11.131	n/a	WAVE	-999	13	[0, 0, 0]	n/a	0	1	0	n/a	n/a	0.0	0	0	0	FR2	1	R1030J
1379.887	10.752	1631289	REC_WORD	19.262	n/a	TREE	-999	13	[0, 0, 0]	n/a	0	1	0	n/a	n/a	0.0	0	0	0	FR2	1	R1030J
1390.639	23.124	1642041	REC_END	n/a	n/a	n/a	-999	13	[0, 0, 0]	n/a	0	1	0	n/a	n/a	0.0	0	0	0	FR2	1	R1030J
1413.763	10.0	1665164	COUNTDOWN_START	n/a	n/a	n/a	-999	14	[0, 0, 0]	n/a	0	1	0	n/a	n/a	0.0	0	0	0	FR2	1	R1030J
1413.764	919.31	1665165	TRIAL	n/a	n/a	n/a	-999	14	[0, 0, 0]	n/a	0	1	0	n/a	n/a	0.0	0	0	0	FR2	1	R1030J
2333.074	39.434	2584467	SESS_START	n/a	n/a	n/a	-999	14	[0, 0, 0]	n/a	0	1	0	n/a	n/a	0.0	0	0	0	FR2	1	R1030J
2372.508	10.0	2623901	COUNTDOWN_START	n/a	n/a	n/a	-999	14	[0, 0, 0]	n/a	0	1	0	n/a	n/a	0.0	0	0	0	FR2	1	R1030J
2372.509	10.427	2623902	TRIAL	n/a	n/a	n/a	-999	14	[0, 0, 0]	n/a	0	1	0	n/a	n/a	0.0	0	0	0	FR2	1	R1030J
2382.936	0.006	2634329	COUNTDOWN_END	n/a	n/a	n/a	-999	14	[0, 0, 0]	n/a	0	1	0	n/a	n/a	0.0	0	0	0	FR2	1	R1030J
2382.942	1.6	2634335	ORIENT	n/a	n/a	n/a	-999	14	[0, 0, 0]	n/a	0	1	0	n/a	n/a	0.0	0	0	0	FR2	1	R1030J
2385.513	1.6	2636906	WORD	n/a	wordpools/wordpool_EN.txt	RICE	1	14	[0, 0, 0]	n/a	0	1	0	n/a	n/a	0.0	0	0	0	FR2	1	R1030J
2388.034	1.6	2639427	WORD	n/a	wordpools/wordpool_EN.txt	RAKE	2	14	[0, 0, 0]	n/a	0	1	0	n/a	n/a	0.0	0	0	0	FR2	1	R1030J
2390.339	4.6	2641732	STIM_ON	n/a	n/a	n/a	-999	14	[0, 0, 0]	n/a	1	1	4600	LQ1	LQ2	500.0	50	230	300	FR2	1	R1030J
2390.554	1.6	2641947	WORD	n/a	wordpools/wordpool_EN.txt	HOLE	3	14	[0, 0, 0]	n/a	1	1	4600	LQ1	LQ2	500.0	50	230	300	FR2	1	R1030J
2393.025	1.6	2644418	WORD	n/a	wordpools/wordpool_EN.txt	RUG	4	14	[0, 0, 0]	n/a	1	1	4600	LQ1	LQ2	500.0	50	230	300	FR2	1	R1030J
2395.646	1.6	2647039	WORD	n/a	wordpools/wordpool_EN.txt	MOUTH	5	14	[0, 0, 0]	n/a	0	1	0	n/a	n/a	0.0	0	0	0	FR2	1	R1030J
2398.235	1.6	2649628	WORD	n/a	wordpools/wordpool_EN.txt	SUN	6	14	[0, 0, 0]	n/a	0	1	0	n/a	n/a	0.0	0	0	0	FR2	1	R1030J
2400.429	4.6	2651822	STIM_ON	n/a	n/a	n/a	-999	14	[0, 0, 0]	n/a	1	1	4600	LQ1	LQ2	500.0	50	230	300	FR2	1	R1030J
2400.638	1.6	2652031	WORD	n/a	wordpools/wordpool_EN.txt	GLASS	7	14	[0, 0, 0]	n/a	1	1	4600	LQ1	LQ2	500.0	50	230	300	FR2	1	R1030J
2403.042	1.6	2654434	WORD	n/a	wordpools/wordpool_EN.txt	SOAP	8	14	[0, 0, 0]	n/a	1	1	4600	LQ1	LQ2	500.0	50	230	300	FR2	1	R1030J
2405.596	1.6	2656988	WORD	n/a	wordpools/wordpool_EN.txt	EGG	9	14	[0, 0, 0]	n/a	0	1	0	n/a	n/a	0.0	0	0	0	FR2	1	R1030J
2407.984	1.6	2659376	WORD	n/a	wordpools/wordpool_EN.txt	BRANCH	10	14	[0, 0, 0]	n/a	0	1	0	n/a	n/a	0.0	0	0	0	FR2	1	R1030J
2410.29	4.6	2661682	STIM_ON	n/a	n/a	n/a	-999	14	[0, 0, 0]	n/a	1	1	4600	LQ1	LQ2	500.0	50	230	300	FR2	1	R1030J
2410.505	1.6	2661897	WORD	n/a	wordpools/wordpool_EN.txt	MOOSE	11	14	[0, 0, 0]	n/a	1	1	4600	LQ1	LQ2	500.0	50	230	300	FR2	1	R1030J
2413.111	1.6	2664503	WORD	n/a	wordpools/wordpool_EN.txt	WORM	12	14	[0, 0, 0]	n/a	1	1	4600	LQ1	LQ2	500.0	50	230	300	FR2	1	R1030J
2414.728	0.001	2666120	DISTRACT_START	n/a	n/a	n/a	-999	14	[0, 0, 0]	n/a	1	1	4600	LQ1	LQ2	500.0	50	230	300	FR2	1	R1030J
2414.729	0.016	2666121	START	n/a	n/a	n/a	-999	14	[-999, -999, -999]	n/a	0	1	0	n/a	n/a	0.0	0	0	0	FR2	1	R1030J
2414.745	3.172	2666137	PROB	3.149	n/a	n/a	-999	14	[9, 3, 3]	15	0	1	0	n/a	n/a	0.0	0	0	0	FR2	1	R1030J
2417.917	2.705	2669309	PROB	2.673	n/a	n/a	-999	14	[8, 3, 7]	18	0	1	0	n/a	n/a	0.0	0	0	0	FR2	1	R1030J
2420.622	2.655	2672014	PROB	2.632	n/a	n/a	-999	14	[7, 4, 6]	17	0	1	0	n/a	n/a	0.0	0	0	0	FR2	1	R1030J
2423.277	2.403	2674669	PROB	2.369	n/a	n/a	-999	14	[3, 2, 6]	11	0	1	0	n/a	n/a	0.0	0	0	0	FR2	1	R1030J
2425.68	2.421	2677072	PROB	2.397	n/a	n/a	-999	14	[4, 6, 6]	16	0	1	0	n/a	n/a	0.0	0	0	0	FR2	1	R1030J
2428.101	4.992	2679493	PROB	4.961	n/a	n/a	-999	14	[1, 6, 8]	15	0	1	0	n/a	n/a	0.0	0	0	0	FR2	1	R1030J
2433.093	4.982	2684485	PROB	4.982	n/a	n/a	-999	14	[5, 1, 7]	13	0	1	0	n/a	n/a	0.0	0	0	0	FR2	1	R1030J
2438.075	0.01	2689467	STOP	n/a	n/a	n/a	-999	14	[-999, -999, -999]	n/a	0	1	0	n/a	n/a	0.0	0	0	0	FR2	1	R1030J
2438.085	1.153	2689477	DISTRACT_END	n/a	n/a	n/a	-999	14	[0, 0, 0]	n/a	0	1	0	n/a	n/a	0.0	0	0	0	FR2	1	R1030J
2439.238	1.331	2690630	REC_START	n/a	n/a	n/a	-999	14	[0, 0, 0]	n/a	0	1	0	n/a	n/a	0.0	0	0	0	FR2	1	R1030J
2440.569	1.217	2691961	REC_WORD	1.331	n/a	MOOSE	-999	14	[0, 0, 0]	n/a	0	1	0	n/a	n/a	0.0	0	0	0	FR2	1	R1030J
2441.786	9.457	2693178	REC_WORD	2.548	n/a	WORM	-999	14	[0, 0, 0]	n/a	0	1	0	n/a	n/a	0.0	0	0	0	FR2	1	R1030J
2451.243	18.008	2702635	REC_WORD	12.005	n/a	BOAT	-999	14	[0, 0, 0]	n/a	0	1	0	n/a	n/a	0.0	0	0	0	FR2	1	R1030J
2469.251	2.157	2720643	REC_END	n/a	n/a	n/a	-999	14	[0, 0, 0]	n/a	0	1	0	n/a	n/a	0.0	0	0	0	FR2	1	R1030J
2471.408	10.0	2722800	COUNTDOWN_START	n/a	n/a	n/a	-999	15	[0, 0, 0]	n/a	0	1	0	n/a	n/a	0.0	0	0	0	FR2	1	R1030J
2471.409	10.427	2722801	TRIAL	n/a	n/a	n/a	-999	15	[0, 0, 0]	n/a	0	1	0	n/a	n/a	0.0	0	0	0	FR2	1	R1030J
2481.836	0.005	2733228	COUNTDOWN_END	n/a	n/a	n/a	-999	15	[0, 0, 0]	n/a	0	1	0	n/a	n/a	0.0	0	0	0	FR2	1	R1030J
2481.841	1.6	2733233	ORIENT	n/a	n/a	n/a	-999	15	[0, 0, 0]	n/a	0	1	0	n/a	n/a	0.0	0	0	0	FR2	1	R1030J
2484.28	1.6	2735672	WORD	n/a	wordpools/wordpool_EN.txt	BAND	1	15	[0, 0, 0]	n/a	0	1	0	n/a	n/a	0.0	0	0	0	FR2	1	R1030J
2486.783	1.6	2738175	WORD	n/a	wordpools/wordpool_EN.txt	TOOTH	2	15	[0, 0, 0]	n/a	0	1	0	n/a	n/a	0.0	0	0	0	FR2	1	R1030J
2489.107	4.6	2740499	STIM_ON	n/a	n/a	n/a	-999	15	[0, 0, 0]	n/a	1	1	4600	LQ1	LQ2	500.0	50	230	300	FR2	1	R1030J
2489.322	1.6	2740714	WORD	n/a	wordpools/wordpool_EN.txt	ZOO	3	15	[0, 0, 0]	n/a	1	1	4600	LQ1	LQ2	500.0	50	230	300	FR2	1	R1030J
2491.758	1.6	2743150	WORD	n/a	wordpools/wordpool_EN.txt	CHIEF	4	15	[0, 0, 0]	n/a	1	1	4600	LQ1	LQ2	500.0	50	230	300	FR2	1	R1030J
2494.23	1.6	2745622	WORD	n/a	wordpools/wordpool_EN.txt	FENCE	5	15	[0, 0, 0]	n/a	0	1	0	n/a	n/a	0.0	0	0	0	FR2	1	R1030J
2496.701	1.6	2748093	WORD	n/a	wordpools/wordpool_EN.txt	BALL	6	15	[0, 0, 0]	n/a	0	1	0	n/a	n/a	0.0	0	0	0	FR2	1	R1030J
2498.946	4.6	2750338	STIM_ON	n/a	n/a	n/a	-999	15	[0, 0, 0]	n/a	1	1	4600	LQ1	LQ2	500.0	50	230	300	FR2	1	R1030J
2499.155	1.6	2750547	WORD	n/a	wordpools/wordpool_EN.txt	FUR	7	15	[0, 0, 0]	n/a	1	1	4600	LQ1	LQ2	500.0	50	230	300	FR2	1	R1030J
2501.575	1.6	2752967	WORD	n/a	wordpools/wordpool_EN.txt	ARK	8	15	[0, 0, 0]	n/a	1	1	4600	LQ1	LQ2	500.0	50	230	300	FR2	1	R1030J
2504.062	1.6	2755454	WORD	n/a	wordpools/wordpool_EN.txt	INK	9	15	[0, 0, 0]	n/a	0	1	0	n/a	n/a	0.0	0	0	0	FR2	1	R1030J
2506.533	1.6	2757925	WORD	n/a	wordpools/wordpool_EN.txt	MOTH	10	15	[0, 0, 0]	n/a	0	1	0	n/a	n/a	0.0	0	0	0	FR2	1	R1030J
2508.902	4.6	2760294	STIM_ON	n/a	n/a	n/a	-999	15	[0, 0, 0]	n/a	1	1	4600	LQ1	LQ2	500.0	50	230	300	FR2	1	R1030J
2509.121	1.6	2760513	WORD	n/a	wordpools/wordpool_EN.txt	BADGE	11	15	[0, 0, 0]	n/a	1	1	4600	LQ1	LQ2	500.0	50	230	300	FR2	1	R1030J
2511.742	1.6	2763134	WORD	n/a	wordpools/wordpool_EN.txt	SWORD	12	15	[0, 0, 0]	n/a	1	1	4600	LQ1	LQ2	500.0	50	230	300	FR2	1	R1030J
2513.362	0.001	2764753	DISTRACT_START	n/a	n/a	n/a	-999	15	[0, 0, 0]	n/a	1	1	4600	LQ1	LQ2	500.0	50	230	300	FR2	1	R1030J
2513.363	0.016	2764754	START	n/a	n/a	n/a	-999	15	[-999, -999, -999]	n/a	0	1	0	n/a	n/a	0.0	0	0	0	FR2	1	R1030J
2513.379	10.4	2764770	PROB	10.376	n/a	n/a	-999	15	[6, 7, 9]	22	0	1	0	n/a	n/a	0.0	0	0	0	FR2	1	R1030J
2523.779	2.871	2775170	PROB	2.84	n/a	n/a	-999	15	[3, 1, 3]	7	0	1	0	n/a	n/a	0.0	0	0	0	FR2	1	R1030J
2526.65	3.439	2778041	PROB	3.409	n/a	n/a	-999	15	[3, 3, 4]	10	0	1	0	n/a	n/a	0.0	0	0	0	FR2	1	R1030J
2530.089	4.394	2781480	PROB	4.394	n/a	n/a	-999	15	[6, 8, 5]	19	0	1	0	n/a	n/a	0.0	0	0	0	FR2	1	R1030J
2534.483	0.014	2785874	STOP	n/a	n/a	n/a	-999	15	[-999, -999, -999]	n/a	0	1	0	n/a	n/a	0.0	0	0	0	FR2	1	R1030J
2534.497	1.136	2785888	DISTRACT_END	n/a	n/a	n/a	-999	15	[0, 0, 0]	n/a	0	1	0	n/a	n/a	0.0	0	0	0	FR2	1	R1030J
2535.633	2.378	2787024	REC_START	n/a	n/a	n/a	-999	15	[0, 0, 0]	n/a	0	1	0	n/a	n/a	0.0	0	0	0	FR2	1	R1030J
2538.011	1.112	2789402	REC_WORD	2.378	n/a	ARK	-999	15	[0, 0, 0]	n/a	0	1	0	n/a	n/a	0.0	0	0	0	FR2	1	R1030J
2539.123	0.321	2790514	REC_WORD_VV	3.49	n/a	<>	-999	15	[0, 0, 0]	n/a	0	1	0	n/a	n/a	0.0	0	0	0	FR2	1	R1030J
2539.444	2.395	2790835	REC_WORD	3.811	n/a	INK	-999	15	[0, 0, 0]	n/a	0	1	0	n/a	n/a	0.0	0	0	0	FR2	1	R1030J
2541.839	3.366	2793230	REC_WORD_VV	6.206	n/a	<>	-999	15	[0, 0, 0]	n/a	0	1	0	n/a	n/a	0.0	0	0	0	FR2	1	R1030J
2545.205	1.487	2796596	REC_WORD	9.572	n/a	BARK	-999	15	[0, 0, 0]	n/a	0	1	0	n/a	n/a	0.0	0	0	0	FR2	1	R1030J
2546.692	2.699	2798083	REC_WORD	11.059	n/a	TREE	-999	15	[0, 0, 0]	n/a	0	1	0	n/a	n/a	0.0	0	0	0	FR2	1	R1030J
2549.391	2.756	2800782	REC_WORD	13.758	n/a	BRANCH	-999	15	[0, 0, 0]	n/a	0	1	0	n/a	n/a	0.0	0	0	0	FR2	1	R1030J
2552.147	13.499	2803538	REC_WORD	16.514	n/a	OWL	-999	15	[0, 0, 0]	n/a	0	1	0	n/a	n/a	0.0	0	0	0	FR2	1	R1030J
2565.646	2.123	2817037	REC_END	n/a	n/a	n/a	-999	15	[0, 0, 0]	n/a	0	1	0	n/a	n/a	0.0	0	0	0	FR2	1	R1030J
2567.769	10.0	2819160	COUNTDOWN_START	n/a	n/a	n/a	-999	16	[0, 0, 0]	n/a	0	1	0	n/a	n/a	0.0	0	0	0	FR2	1	R1030J
2567.77	10.427	2819161	TRIAL	n/a	n/a	n/a	-999	16	[0, 0, 0]	n/a	0	1	0	n/a	n/a	0.0	0	0	0	FR2	1	R1030J
2578.197	0.008	2829588	COUNTDOWN_END	n/a	n/a	n/a	-999	16	[0, 0, 0]	n/a	0	1	0	n/a	n/a	0.0	0	0	0	FR2	1	R1030J
2578.205	1.6	2829596	ORIENT	n/a	n/a	n/a	-999	16	[0, 0, 0]	n/a	0	1	0	n/a	n/a	0.0	0	0	0	FR2	1	R1030J
2580.691	1.6	2832082	WORD	n/a	wordpools/wordpool_EN.txt	DEER	1	16	[0, 0, 0]	n/a	0	1	0	n/a	n/a	0.0	0	0	0	FR2	1	R1030J
2583.095	1.6	2834486	WORD	n/a	wordpools/wordpool_EN.txt	CUP	2	16	[0, 0, 0]	n/a	0	1	0	n/a	n/a	0.0	0	0	0	FR2	1	R1030J
2585.395	4.6	2836786	STIM_ON	n/a	n/a	n/a	-999	16	[0, 0, 0]	n/a	1	1	4600	LQ1	LQ2	500.0	50	230	300	FR2	1	R1030J
2585.6	1.6	2836991	WORD	n/a	wordpools/wordpool_EN.txt	JUICE	3	16	[0, 0, 0]	n/a	1	1	4600	LQ1	LQ2	500.0	50	230	300	FR2	1	R1030J
2588.138	1.6	2839529	WORD	n/a	wordpools/wordpool_EN.txt	WAND	4	16	[0, 0, 0]	n/a	1	1	4600	LQ1	LQ2	500.0	50	230	300	FR2	1	R1030J
2590.691	1.6	2842082	WORD	n/a	wordpools/wordpool_EN.txt	GRAPE	5	16	[0, 0, 0]	n/a	0	1	0	n/a	n/a	0.0	0	0	0	FR2	1	R1030J
2593.095	1.6	2844486	WORD	n/a	wordpools/wordpool_EN.txt	CRANE	6	16	[0, 0, 0]	n/a	0	1	0	n/a	n/a	0.0	0	0	0	FR2	1	R1030J
2595.505	4.6	2846896	STIM_ON	n/a	n/a	n/a	-999	16	[0, 0, 0]	n/a	1	1	4600	LQ1	LQ2	500.0	50	230	300	FR2	1	R1030J
2595.716	1.6	2847107	WORD	n/a	wordpools/wordpool_EN.txt	TOE	7	16	[0, 0, 0]	n/a	1	1	4600	LQ1	LQ2	500.0	50	230	300	FR2	1	R1030J
2598.222	1.6	2849613	WORD	n/a	wordpools/wordpool_EN.txt	BANK	8	16	[0, 0, 0]	n/a	1	1	4600	LQ1	LQ2	500.0	50	230	300	FR2	1	R1030J
2600.625	1.6	2852016	WORD	n/a	wordpools/wordpool_EN.txt	WALL	9	16	[0, 0, 0]	n/a	0	1	0	n/a	n/a	0.0	0	0	0	FR2	1	R1030J
2603.213	1.6	2854604	WORD	n/a	wordpools/wordpool_EN.txt	CLOWN	10	16	[0, 0, 0]	n/a	0	1	0	n/a	n/a	0.0	0	0	0	FR2	1	R1030J
2605.558	4.6	2856949	STIM_ON	n/a	n/a	n/a	-999	16	[0, 0, 0]	n/a	1	1	4600	LQ1	LQ2	500.0	50	230	300	FR2	1	R1030J
2605.767	1.6	2857158	WORD	n/a	wordpools/wordpool_EN.txt	MAZE	11	16	[0, 0, 0]	n/a	1	1	4600	LQ1	LQ2	500.0	50	230	300	FR2	1	R1030J
2608.322	1.6	2859713	WORD	n/a	wordpools/wordpool_EN.txt	PIE	12	16	[0, 0, 0]	n/a	1	1	4600	LQ1	LQ2	500.0	50	230	300	FR2	1	R1030J
2609.94	0.001	2861331	DISTRACT_START	n/a	n/a	n/a	-999	16	[0, 0, 0]	n/a	1	1	4600	LQ1	LQ2	500.0	50	230	300	FR2	1	R1030J
2609.941	0.016	2861332	START	n/a	n/a	n/a	-999	16	[-999, -999, -999]	n/a	0	1	0	n/a	n/a	0.0	0	0	0	FR2	1	R1030J
2609.957	2.488	2861348	PROB	2.457	n/a	n/a	-999	16	[1, 1, 2]	4	0	1	0	n/a	n/a	0.0	0	0	0	FR2	1	R1030J
2612.445	3.288	2863836	PROB	3.257	n/a	n/a	-999	16	[3, 6, 1]	10	0	1	0	n/a	n/a	0.0	0	0	0	FR2	1	R1030J
2615.733	2.037	2867124	PROB	2.017	n/a	n/a	-999	16	[5, 5, 5]	15	0	1	0	n/a	n/a	0.0	0	0	0	FR2	1	R1030J
2617.77	2.805	2869161	PROB	2.78	n/a	n/a	-999	16	[6, 8, 2]	16	0	1	0	n/a	n/a	0.0	0	0	0	FR2	1	R1030J
2620.575	3.472	2871966	PROB	3.447	n/a	n/a	-999	16	[3, 6, 4]	13	0	1	0	n/a	n/a	0.0	0	0	0	FR2	1	R1030J
2624.047	5.294	2875437	PROB	5.256	n/a	n/a	-999	16	[5, 6, 4]	15	0	1	0	n/a	n/a	0.0	0	0	0	FR2	1	R1030J
2629.341	3.05	2880731	PROB	3.05	n/a	n/a	-999	16	[8, 8, 4]	20	0	1	0	n/a	n/a	0.0	0	0	0	FR2	1	R1030J
2632.391	0.022	2883781	STOP	n/a	n/a	n/a	-999	16	[-999, -999, -999]	n/a	0	1	0	n/a	n/a	0.0	0	0	0	FR2	1	R1030J
2632.413	1.218	2883803	DISTRACT_END	n/a	n/a	n/a	-999	16	[0, 0, 0]	n/a	0	1	0	n/a	n/a	0.0	0	0	0	FR2	1	R1030J
2633.631	6.265	2885021	REC_START	n/a	n/a	n/a	-999	16	[0, 0, 0]	n/a	0	1	0	n/a	n/a	0.0	0	0	0	FR2	1	R1030J
2639.896	0.93	2891286	REC_WORD	6.265	n/a	CUP	-999	16	[0, 0, 0]	n/a	0	1	0	n/a	n/a	0.0	0	0	0	FR2	1	R1030J
2640.826	6.16	2892216	REC_WORD	7.195	n/a	MAZE	-999	16	[0, 0, 0]	n/a	0	1	0	n/a	n/a	0.0	0	0	0	FR2	1	R1030J
2646.986	8.64	2898376	REC_WORD	13.355	n/a	SWORD	-999	16	[0, 0, 0]	n/a	0	1	0	n/a	n/a	0.0	0	0	0	FR2	1	R1030J
2655.626	8.018	2907016	REC_WORD	21.995	n/a	CROW	-999	16	[0, 0, 0]	n/a	0	1	0	n/a	n/a	0.0	0	0	0	FR2	1	R1030J
2663.644	2.626	2915034	REC_END	n/a	n/a	n/a	-999	16	[0, 0, 0]	n/a	0	1	0	n/a	n/a	0.0	0	0	0	FR2	1	R1030J
2666.27	10.0	2917660	COUNTDOWN_START	n/a	n/a	n/a	-999	17	[0, 0, 0]	n/a	0	1	0	n/a	n/a	0.0	0	0	0	FR2	1	R1030J
2666.27	10.428	2917660	TRIAL	n/a	n/a	n/a	-999	17	[0, 0, 0]	n/a	0	1	0	n/a	n/a	0.0	0	0	0	FR2	1	R1030J
2676.698	0.005	2928088	COUNTDOWN_END	n/a	n/a	n/a	-999	17	[0, 0, 0]	n/a	0	1	0	n/a	n/a	0.0	0	0	0	FR2	1	R1030J
2676.703	1.6	2928093	ORIENT	n/a	n/a	n/a	-999	17	[0, 0, 0]	n/a	0	1	0	n/a	n/a	0.0	0	0	0	FR2	1	R1030J
2679.174	1.6	2930564	WORD	n/a	wordpools/wordpool_EN.txt	SEED	1	17	[0, 0, 0]	n/a	0	1	0	n/a	n/a	0.0	0	0	0	FR2	1	R1030J
2681.694	1.6	2933084	WORD	n/a	wordpools/wordpool_EN.txt	CONE	2	17	[0, 0, 0]	n/a	0	1	0	n/a	n/a	0.0	0	0	0	FR2	1	R1030J
2684.021	4.6	2935411	STIM_ON	n/a	n/a	n/a	-999	17	[0, 0, 0]	n/a	1	1	4600	LQ1	LQ2	500.0	50	230	300	FR2	1	R1030J
2684.233	1.6	2935623	WORD	n/a	wordpools/wordpool_EN.txt	DITCH	3	17	[0, 0, 0]	n/a	1	1	4600	LQ1	LQ2	500.0	50	230	300	FR2	1	R1030J
2686.82	1.6	2938210	WORD	n/a	wordpools/wordpool_EN.txt	BEAN	4	17	[0, 0, 0]	n/a	1	1	4600	LQ1	LQ2	500.0	50	230	300	FR2	1	R1030J
2689.308	1.6	2940698	WORD	n/a	wordpools/wordpool_EN.txt	FOOD	5	17	[0, 0, 0]	n/a	0	1	0	n/a	n/a	0.0	0	0	0	FR2	1	R1030J
2691.929	1.6	2943319	WORD	n/a	wordpools/wordpool_EN.txt	MOON	6	17	[0, 0, 0]	n/a	0	1	0	n/a	n/a	0.0	0	0	0	FR2	1	R1030J
2694.205	4.6	2945595	STIM_ON	n/a	n/a	n/a	-999	17	[0, 0, 0]	n/a	1	1	4600	LQ1	LQ2	500.0	50	230	300	FR2	1	R1030J
2694.417	1.6	2945807	WORD	n/a	wordpools/wordpool_EN.txt	VINE	7	17	[0, 0, 0]	n/a	1	1	4600	LQ1	LQ2	500.0	50	230	300	FR2	1	R1030J
2696.837	1.6	2948227	WORD	n/a	wordpools/wordpool_EN.txt	WEED	8	17	[0, 0, 0]	n/a	1	1	4600	LQ1	LQ2	500.0	50	230	300	FR2	1	R1030J
2699.292	1.6	2950682	WORD	n/a	wordpools/wordpool_EN.txt	STRAW	9	17	[0, 0, 0]	n/a	0	1	0	n/a	n/a	0.0	0	0	0	FR2	1	R1030J
2701.845	1.6	2953235	WORD	n/a	wordpools/wordpool_EN.txt	DIME	10	17	[0, 0, 0]	n/a	0	1	0	n/a	n/a	0.0	0	0	0	FR2	1	R1030J
2704.265	4.6	2955655	STIM_ON	n/a	n/a	n/a	-999	17	[0, 0, 0]	n/a	1	1	4600	LQ1	LQ2	500.0	50	230	300	FR2	1	R1030J
2704.483	1.6	2955873	WORD	n/a	wordpools/wordpool_EN.txt	CHEEK	11	17	[0, 0, 0]	n/a	1	1	4600	LQ1	LQ2	500.0	50	230	300	FR2	1	R1030J
2706.92	1.6	2958310	WORD	n/a	wordpools/wordpool_EN.txt	CHAIR	12	17	[0, 0, 0]	n/a	1	1	4600	LQ1	LQ2	500.0	50	230	300	FR2	1	R1030J
2708.54	0.0	2959930	DISTRACT_START	n/a	n/a	n/a	-999	17	[0, 0, 0]	n/a	1	1	4600	LQ1	LQ2	500.0	50	230	300	FR2	1	R1030J
2708.54	0.016	2959930	START	n/a	n/a	n/a	-999	17	[-999, -999, -999]	n/a	0	1	0	n/a	n/a	0.0	0	0	0	FR2	1	R1030J
2708.556	2.773	2959946	PROB	2.745	n/a	n/a	-999	17	[8, 8, 4]	20	0	1	0	n/a	n/a	0.0	0	0	0	FR2	1	R1030J
2711.329	2.67	2962719	PROB	2.635	n/a	n/a	-999	17	[1, 3, 8]	12	0	1	0	n/a	n/a	0.0	0	0	0	FR2	1	R1030J
2713.999	2.621	2965389	PROB	2.597	n/a	n/a	-999	17	[6, 1, 3]	10	0	1	0	n/a	n/a	0.0	0	0	0	FR2	1	R1030J
2716.62	3.856	2968010	PROB	3.824	n/a	n/a	-999	17	[4, 3, 1]	8	0	1	0	n/a	n/a	0.0	0	0	0	FR2	1	R1030J
2720.476	2.521	2971866	PROB	2.496	n/a	n/a	-999	17	[5, 6, 4]	15	0	1	0	n/a	n/a	0.0	0	0	0	FR2	1	R1030J
2722.997	2.722	2974387	PROB	2.695	n/a	n/a	-999	17	[3, 4, 3]	10	0	1	0	n/a	n/a	0.0	0	0	0	FR2	1	R1030J
2725.719	2.253	2977109	PROB	2.229	n/a	n/a	-999	17	[4, 8, 8]	20	0	1	0	n/a	n/a	0.0	0	0	0	FR2	1	R1030J
2727.972	2.688	2979362	PROB	2.688	n/a	n/a	-999	17	[6, 1, 6]	13	0	1	0	n/a	n/a	0.0	0	0	0	FR2	1	R1030J
2730.66	0.017	2982050	STOP	n/a	n/a	n/a	-999	17	[-999, -999, -999]	n/a	0	1	0	n/a	n/a	0.0	0	0	0	FR2	1	R1030J
2730.677	1.086	2982067	DISTRACT_END	n/a	n/a	n/a	-999	17	[0, 0, 0]	n/a	0	1	0	n/a	n/a	0.0	0	0	0	FR2	1	R1030J
2731.763	2.568	2983153	REC_START	n/a	n/a	n/a	-999	17	[0, 0, 0]	n/a	0	1	0	n/a	n/a	0.0	0	0	0	FR2	1	R1030J
2734.331	1.431	2985720	REC_WORD	2.568	n/a	MOON	-999	17	[0, 0, 0]	n/a	0	1	0	n/a	n/a	0.0	0	0	0	FR2	1	R1030J
2735.762	1.581	2987151	REC_WORD	3.999	n/a	LAWN	-999	17	[0, 0, 0]	n/a	0	1	0	n/a	n/a	0.0	0	0	0	FR2	1	R1030J
2737.343	4.188	2988732	REC_WORD	5.58	n/a	WEED	-999	17	[0, 0, 0]	n/a	0	1	0	n/a	n/a	0.0	0	0	0	FR2	1	R1030J
2741.531	13.439	2992920	REC_WORD_VV	9.768	n/a	<>	-999	17	[0, 0, 0]	n/a	0	1	0	n/a	n/a	0.0	0	0	0	FR2	1	R1030J
2754.97	4.779	3006359	REC_WORD	23.207	n/a	DITCH	-999	17	[0, 0, 0]	n/a	0	1	0	n/a	n/a	0.0	0	0	0	FR2	1	R1030J
2759.749	2.027	3011138	REC_WORD	27.986	n/a	VINE	-999	17	[0, 0, 0]	n/a	0	1	0	n/a	n/a	0.0	0	0	0	FR2	1	R1030J
2761.776	2.023	3013165	REC_END	n/a	n/a	n/a	-999	17	[0, 0, 0]	n/a	0	1	0	n/a	n/a	0.0	0	0	0	FR2	1	R1030J
2763.799	10.0	3015188	COUNTDOWN_START	n/a	n/a	n/a	-999	18	[0, 0, 0]	n/a	0	1	0	n/a	n/a	0.0	0	0	0	FR2	1	R1030J
2763.8	10.427	3015189	TRIAL	n/a	n/a	n/a	-999	18	[0, 0, 0]	n/a	0	1	0	n/a	n/a	0.0	0	0	0	FR2	1	R1030J
2774.227	0.008	3025616	COUNTDOWN_END	n/a	n/a	n/a	-999	18	[0, 0, 0]	n/a	0	1	0	n/a	n/a	0.0	0	0	0	FR2	1	R1030J
2774.235	1.6	3025624	ORIENT	n/a	n/a	n/a	-999	18	[0, 0, 0]	n/a	0	1	0	n/a	n/a	0.0	0	0	0	FR2	1	R1030J
2776.855	1.6	3028244	WORD	n/a	wordpools/wordpool_EN.txt	PEN	1	18	[0, 0, 0]	n/a	0	1	0	n/a	n/a	0.0	0	0	0	FR2	1	R1030J
2779.243	1.6	3030632	WORD	n/a	wordpools/wordpool_EN.txt	SHEEP	2	18	[0, 0, 0]	n/a	0	1	0	n/a	n/a	0.0	0	0	0	FR2	1	R1030J
2781.531	4.6	3032920	STIM_ON	n/a	n/a	n/a	-999	18	[0, 0, 0]	n/a	1	1	4600	LQ1	LQ2	500.0	50	230	300	FR2	1	R1030J
2781.746	1.6	3033135	WORD	n/a	wordpools/wordpool_EN.txt	BOOK	3	18	[0, 0, 0]	n/a	1	1	4600	LQ1	LQ2	500.0	50	230	300	FR2	1	R1030J
2784.335	1.6	3035724	WORD	n/a	wordpools/wordpool_EN.txt	SKY	4	18	[0, 0, 0]	n/a	1	1	4600	LQ1	LQ2	500.0	50	230	300	FR2	1	R1030J
2786.721	1.6	3038110	WORD	n/a	wordpools/wordpool_EN.txt	FLAG	5	18	[0, 0, 0]	n/a	0	1	0	n/a	n/a	0.0	0	0	0	FR2	1	R1030J
2789.125	1.6	3040514	WORD	n/a	wordpools/wordpool_EN.txt	STAIR	6	18	[0, 0, 0]	n/a	0	1	0	n/a	n/a	0.0	0	0	0	FR2	1	R1030J
2791.382	4.6	3042771	STIM_ON	n/a	n/a	n/a	-999	18	[0, 0, 0]	n/a	1	1	4600	LQ1	LQ2	500.0	50	230	300	FR2	1	R1030J
2791.596	1.6	3042985	WORD	n/a	wordpools/wordpool_EN.txt	FUDGE	7	18	[0, 0, 0]	n/a	1	1	4600	LQ1	LQ2	500.0	50	230	300	FR2	1	R1030J
2794.05	1.6	3045439	WORD	n/a	wordpools/wordpool_EN.txt	HAND	8	18	[0, 0, 0]	n/a	1	1	4600	LQ1	LQ2	500.0	50	230	300	FR2	1	R1030J
2796.671	1.6	3048060	WORD	n/a	wordpools/wordpool_EN.txt	CLAY	9	18	[0, 0, 0]	n/a	0	1	0	n/a	n/a	0.0	0	0	0	FR2	1	R1030J
2799.125	1.6	3050514	WORD	n/a	wordpools/wordpool_EN.txt	DOLL	10	18	[0, 0, 0]	n/a	0	1	0	n/a	n/a	0.0	0	0	0	FR2	1	R1030J
2801.437	4.6	3052826	STIM_ON	n/a	n/a	n/a	-999	18	[0, 0, 0]	n/a	1	1	4600	LQ1	LQ2	500.0	50	230	300	FR2	1	R1030J
2801.646	1.6	3053035	WORD	n/a	wordpools/wordpool_EN.txt	BROOM	11	18	[0, 0, 0]	n/a	1	1	4600	LQ1	LQ2	500.0	50	230	300	FR2	1	R1030J
2804.185	1.6	3055574	WORD	n/a	wordpools/wordpool_EN.txt	FORT	12	18	[0, 0, 0]	n/a	1	1	4600	LQ1	LQ2	500.0	50	230	300	FR2	1	R1030J
2805.803	0.001	3057192	DISTRACT_START	n/a	n/a	n/a	-999	18	[0, 0, 0]	n/a	1	1	4600	LQ1	LQ2	500.0	50	230	300	FR2	1	R1030J
2805.804	0.016	3057193	START	n/a	n/a	n/a	-999	18	[-999, -999, -999]	n/a	0	1	0	n/a	n/a	0.0	0	0	0	FR2	1	R1030J
2805.82	2.638	3057209	PROB	2.6	n/a	n/a	-999	18	[5, 5, 9]	19	0	1	0	n/a	n/a	0.0	0	0	0	FR2	1	R1030J
2808.458	2.187	3059847	PROB	2.154	n/a	n/a	-999	18	[7, 3, 9]	19	0	1	0	n/a	n/a	0.0	0	0	0	FR2	1	R1030J
2810.645	2.672	3062034	PROB	2.648	n/a	n/a	-999	18	[7, 6, 7]	20	0	1	0	n/a	n/a	0.0	0	0	0	FR2	1	R1030J
2813.317	2.837	3064706	PROB	2.815	n/a	n/a	-999	18	[2, 3, 6]	11	0	1	0	n/a	n/a	0.0	0	0	0	FR2	1	R1030J
2816.154	3.873	3067543	PROB	3.85	n/a	n/a	-999	18	[2, 3, 4]	9	0	1	0	n/a	n/a	0.0	0	0	0	FR2	1	R1030J
2820.027	4.275	3071416	PROB	4.25	n/a	n/a	-999	18	[9, 8, 5]	22	0	1	0	n/a	n/a	0.0	0	0	0	FR2	1	R1030J
2824.302	2.27	3075691	PROB	2.27	n/a	n/a	-999	18	[2, 1, 5]	8	0	1	0	n/a	n/a	0.0	0	0	0	FR2	1	R1030J
2826.572	0.016	3077961	STOP	n/a	n/a	n/a	-999	18	[-999, -999, -999]	n/a	0	1	0	n/a	n/a	0.0	0	0	0	FR2	1	R1030J
2826.588	1.169	3077977	DISTRACT_END	n/a	n/a	n/a	-999	18	[0, 0, 0]	n/a	0	1	0	n/a	n/a	0.0	0	0	0	FR2	1	R1030J
2827.757	4.444	3079146	REC_START	n/a	n/a	n/a	-999	18	[0, 0, 0]	n/a	0	1	0	n/a	n/a	0.0	0	0	0	FR2	1	R1030J
2832.201	3.625	3083590	REC_WORD_VV	4.444	n/a	<>	-999	18	[0, 0, 0]	n/a	0	1	0	n/a	n/a	0.0	0	0	0	FR2	1	R1030J
2835.826	21.953	3087215	REC_WORD	8.069	n/a	SAND	-999	18	[0, 0, 0]	n/a	0	1	0	n/a	n/a	0.0	0	0	0	FR2	1	R1030J
2857.779	2.535	3109167	REC_END	n/a	n/a	n/a	-999	18	[0, 0, 0]	n/a	0	1	0	n/a	n/a	0.0	0	0	0	FR2	1	R1030J
2860.314	10.0	3111702	COUNTDOWN_START	n/a	n/a	n/a	-999	19	[0, 0, 0]	n/a	0	1	0	n/a	n/a	0.0	0	0	0	FR2	1	R1030J
2860.315	10.427	3111703	TRIAL	n/a	n/a	n/a	-999	19	[0, 0, 0]	n/a	0	1	0	n/a	n/a	0.0	0	0	0	FR2	1	R1030J
2870.742	0.021	3122130	COUNTDOWN_END	n/a	n/a	n/a	-999	19	[0, 0, 0]	n/a	0	1	0	n/a	n/a	0.0	0	0	0	FR2	1	R1030J
2870.763	1.6	3122151	ORIENT	n/a	n/a	n/a	-999	19	[0, 0, 0]	n/a	0	1	0	n/a	n/a	0.0	0	0	0	FR2	1	R1030J
2873.301	1.6	3124689	WORD	n/a	wordpools/wordpool_EN.txt	TENT	1	19	[0, 0, 0]	n/a	0	1	0	n/a	n/a	0.0	0	0	0	FR2	1	R1030J
2875.771	1.6	3127159	WORD	n/a	wordpools/wordpool_EN.txt	SMILE	2	19	[0, 0, 0]	n/a	0	1	0	n/a	n/a	0.0	0	0	0	FR2	1	R1030J
2878.025	4.6	3129413	STIM_ON	n/a	n/a	n/a	-999	19	[0, 0, 0]	n/a	1	1	4600	LQ1	LQ2	500.0	50	230	300	FR2	1	R1030J
2878.243	1.6	3129631	WORD	n/a	wordpools/wordpool_EN.txt	HEN	3	19	[0, 0, 0]	n/a	1	1	4600	LQ1	LQ2	500.0	50	230	300	FR2	1	R1030J
2880.83	1.6	3132218	WORD	n/a	wordpools/wordpool_EN.txt	LEG	4	19	[0, 0, 0]	n/a	1	1	4600	LQ1	LQ2	500.0	50	230	300	FR2	1	R1030J
2883.235	1.6	3134623	WORD	n/a	wordpools/wordpool_EN.txt	FACE	5	19	[0, 0, 0]	n/a	0	1	0	n/a	n/a	0.0	0	0	0	FR2	1	R1030J
2885.805	1.6	3137193	WORD	n/a	wordpools/wordpool_EN.txt	JET	6	19	[0, 0, 0]	n/a	0	1	0	n/a	n/a	0.0	0	0	0	FR2	1	R1030J
2888.039	4.6	3139427	STIM_ON	n/a	n/a	n/a	-999	19	[0, 0, 0]	n/a	1	1	4600	LQ1	LQ2	500.0	50	230	300	FR2	1	R1030J
2888.26	1.6	3139648	WORD	n/a	wordpools/wordpool_EN.txt	BRICK	7	19	[0, 0, 0]	n/a	1	1	4600	LQ1	LQ2	500.0	50	230	300	FR2	1	R1030J
2890.796	1.6	3142184	WORD	n/a	wordpools/wordpool_EN.txt	GRASS	8	19	[0, 0, 0]	n/a	1	1	4600	LQ1	LQ2	500.0	50	230	300	FR2	1	R1030J
2893.368	1.6	3144756	WORD	n/a	wordpools/wordpool_EN.txt	ARM	9	19	[0, 0, 0]	n/a	0	1	0	n/a	n/a	0.0	0	0	0	FR2	1	R1030J
2895.972	1.6	3147360	WORD	n/a	wordpools/wordpool_EN.txt	STOOL	10	19	[0, 0, 0]	n/a	0	1	0	n/a	n/a	0.0	0	0	0	FR2	1	R1030J
2898.162	4.6	3149550	STIM_ON	n/a	n/a	n/a	-999	19	[0, 0, 0]	n/a	1	1	4600	LQ1	LQ2	500.0	50	230	300	FR2	1	R1030J
2898.377	1.6	3149765	WORD	n/a	wordpools/wordpool_EN.txt	FLUTE	11	19	[0, 0, 0]	n/a	1	1	4600	LQ1	LQ2	500.0	50	230	300	FR2	1	R1030J
2900.763	1.6	3152151	WORD	n/a	wordpools/wordpool_EN.txt	FILM	12	19	[0, 0, 0]	n/a	1	1	4600	LQ1	LQ2	500.0	50	230	300	FR2	1	R1030J
2902.367	0.001	3153755	DISTRACT_START	n/a	n/a	n/a	-999	19	[0, 0, 0]	n/a	1	1	4600	LQ1	LQ2	500.0	50	230	300	FR2	1	R1030J
2902.368	0.015	3153756	START	n/a	n/a	n/a	-999	19	[-999, -999, -999]	n/a	0	1	0	n/a	n/a	0.0	0	0	0	FR2	1	R1030J
2902.383	2.22	3153771	PROB	2.186	n/a	n/a	-999	19	[6, 1, 1]	8	0	1	0	n/a	n/a	0.0	0	0	0	FR2	1	R1030J
2904.603	2.17	3155991	PROB	2.149	n/a	n/a	-999	19	[1, 7, 3]	11	0	1	0	n/a	n/a	0.0	0	0	0	FR2	1	R1030J
2906.773	3.072	3158161	PROB	3.044	n/a	n/a	-999	19	[1, 9, 6]	16	0	1	0	n/a	n/a	0.0	0	0	0	FR2	1	R1030J
2909.845	2.104	3161233	PROB	2.068	n/a	n/a	-999	19	[5, 5, 7]	17	0	1	0	n/a	n/a	0.0	0	0	0	FR2	1	R1030J
2911.949	2.421	3163337	PROB	2.397	n/a	n/a	-999	19	[8, 3, 7]	18	0	1	0	n/a	n/a	0.0	0	0	0	FR2	1	R1030J
2914.37	3.772	3165758	PROB	3.742	n/a	n/a	-999	19	[3, 9, 7]	19	0	1	0	n/a	n/a	0.0	0	0	0	FR2	1	R1030J
2918.142	2.288	3169530	PROB	2.268	n/a	n/a	-999	19	[3, 2, 7]	12	0	1	0	n/a	n/a	0.0	0	0	0	FR2	1	R1030J
2920.43	2.531	3171818	PROB	2.531	n/a	n/a	-999	19	[3, 6, 2]	11	0	1	0	n/a	n/a	0.0	0	0	0	FR2	1	R1030J
2922.961	0.006	3174349	STOP	n/a	n/a	n/a	-999	19	[-999, -999, -999]	n/a	0	1	0	n/a	n/a	0.0	0	0	0	FR2	1	R1030J
2922.967	1.052	3174355	DISTRACT_END	n/a	n/a	n/a	-999	19	[0, 0, 0]	n/a	0	1	0	n/a	n/a	0.0	0	0	0	FR2	1	R1030J
2924.019	8.814	3175407	REC_START	n/a	n/a	n/a	-999	19	[0, 0, 0]	n/a	0	1	0	n/a	n/a	0.0	0	0	0	FR2	1	R1030J
2932.833	2.558	3184221	REC_WORD_VV	8.814	n/a	<>	-999	19	[0, 0, 0]	n/a	0	1	0	n/a	n/a	0.0	0	0	0	FR2	1	R1030J
2935.391	18.648	3186779	REC_WORD_VV	11.372	n/a	<>	-999	19	[0, 0, 0]	n/a	0	1	0	n/a	n/a	0.0	0	0	0	FR2	1	R1030J
2954.039	2.601	3205427	REC_END	n/a	n/a	n/a	-999	19	[0, 0, 0]	n/a	0	1	0	n/a	n/a	0.0	0	0	0	FR2	1	R1030J
2956.64	10.0	3208027	COUNTDOWN_START	n/a	n/a	n/a	-999	20	[0, 0, 0]	n/a	0	1	0	n/a	n/a	0.0	0	0	0	FR2	1	R1030J
2956.641	10.427	3208028	TRIAL	n/a	n/a	n/a	-999	20	[0, 0, 0]	n/a	0	1	0	n/a	n/a	0.0	0	0	0	FR2	1	R1030J
2967.068	0.007	3218455	COUNTDOWN_END	n/a	n/a	n/a	-999	20	[0, 0, 0]	n/a	0	1	0	n/a	n/a	0.0	0	0	0	FR2	1	R1030J
2967.075	1.6	3218462	ORIENT	n/a	n/a	n/a	-999	20	[0, 0, 0]	n/a	0	1	0	n/a	n/a	0.0	0	0	0	FR2	1	R1030J
2969.413	4.6	3220800	STIM_ON	n/a	n/a	n/a	-999	20	[0, 0, 0]	n/a	1	1	4600	LQ1	LQ2	500.0	50	230	300	FR2	1	R1030J
2969.629	1.6	3221016	WORD	n/a	wordpools/wordpool_EN.txt	BEAR	1	20	[0, 0, 0]	n/a	1	1	4600	LQ1	LQ2	500.0	50	230	300	FR2	1	R1030J
2972.033	1.6	3223420	WORD	n/a	wordpools/wordpool_EN.txt	SHOE	2	20	[0, 0, 0]	n/a	1	1	4600	LQ1	LQ2	500.0	50	230	300	FR2	1	R1030J
2974.537	1.6	3225924	WORD	n/a	wordpools/wordpool_EN.txt	SMOKE	3	20	[0, 0, 0]	n/a	0	1	0	n/a	n/a	0.0	0	0	0	FR2	1	R1030J
2976.991	1.6	3228378	WORD	n/a	wordpools/wordpool_EN.txt	HORSE	4	20	[0, 0, 0]	n/a	0	1	0	n/a	n/a	0.0	0	0	0	FR2	1	R1030J
2979.318	4.6	3230705	STIM_ON	n/a	n/a	n/a	-999	20	[0, 0, 0]	n/a	1	1	4600	LQ1	LQ2	500.0	50	230	300	FR2	1	R1030J
2979.529	1.6	3230916	WORD	n/a	wordpools/wordpool_EN.txt	STEM	5	20	[0, 0, 0]	n/a	1	1	4600	LQ1	LQ2	500.0	50	230	300	FR2	1	R1030J
2982.133	1.6	3233520	WORD	n/a	wordpools/wordpool_EN.txt	SAIL	6	20	[0, 0, 0]	n/a	1	1	4600	LQ1	LQ2	500.0	50	230	300	FR2	1	R1030J
2984.671	1.6	3236058	WORD	n/a	wordpools/wordpool_EN.txt	TEETH	7	20	[0, 0, 0]	n/a	0	1	0	n/a	n/a	0.0	0	0	0	FR2	1	R1030J
2987.058	1.6	3238445	WORD	n/a	wordpools/wordpool_EN.txt	BLUSH	8	20	[0, 0, 0]	n/a	0	1	0	n/a	n/a	0.0	0	0	0	FR2	1	R1030J
2989.469	4.6	3240856	STIM_ON	n/a	n/a	n/a	-999	20	[0, 0, 0]	n/a	1	1	4600	LQ1	LQ2	500.0	50	230	300	FR2	1	R1030J
2989.679	1.6	3241066	WORD	n/a	wordpools/wordpool_EN.txt	PET	9	20	[0, 0, 0]	n/a	1	1	4600	LQ1	LQ2	500.0	50	230	300	FR2	1	R1030J
2992.285	1.6	3243672	WORD	n/a	wordpools/wordpool_EN.txt	HOUSE	10	20	[0, 0, 0]	n/a	1	1	4600	LQ1	LQ2	500.0	50	230	300	FR2	1	R1030J
2994.705	1.6	3246092	WORD	n/a	wordpools/wordpool_EN.txt	PRINCE	11	20	[0, 0, 0]	n/a	0	1	0	n/a	n/a	0.0	0	0	0	FR2	1	R1030J
2997.277	1.6	3248664	WORD	n/a	wordpools/wordpool_EN.txt	BOY	12	20	[0, 0, 0]	n/a	0	1	0	n/a	n/a	0.0	0	0	0	FR2	1	R1030J
2998.895	0.001	3250282	DISTRACT_START	n/a	n/a	n/a	-999	20	[0, 0, 0]	n/a	0	1	0	n/a	n/a	0.0	0	0	0	FR2	1	R1030J
2998.896	0.016	3250283	START	n/a	n/a	n/a	-999	20	[-999, -999, -999]	n/a	0	1	0	n/a	n/a	0.0	0	0	0	FR2	1	R1030J
2998.912	3.038	3250299	PROB	3.003	n/a	n/a	-999	20	[9, 2, 9]	20	0	1	0	n/a	n/a	0.0	0	0	0	FR2	1	R1030J
3001.95	3.539	3253337	PROB	3.501	n/a	n/a	-999	20	[3, 5, 8]	16	0	1	0	n/a	n/a	0.0	0	0	0	FR2	1	R1030J
3005.489	6.495	3256876	PROB	6.459	n/a	n/a	-999	20	[9, 6, 6]	21	0	1	0	n/a	n/a	0.0	0	0	0	FR2	1	R1030J
3011.984	2.487	3263371	PROB	2.46	n/a	n/a	-999	20	[3, 3, 2]	8	0	1	0	n/a	n/a	0.0	0	0	0	FR2	1	R1030J
3014.471	2.471	3265858	PROB	2.445	n/a	n/a	-999	20	[4, 5, 8]	17	0	1	0	n/a	n/a	0.0	0	0	0	FR2	1	R1030J
3016.942	2.23	3268329	PROB	2.23	n/a	n/a	-999	20	[1, 5, 6]	12	0	1	0	n/a	n/a	0.0	0	0	0	FR2	1	R1030J
3019.172	0.007	3270559	STOP	n/a	n/a	n/a	-999	20	[-999, -999, -999]	n/a	0	1	0	n/a	n/a	0.0	0	0	0	FR2	1	R1030J
3019.179	1.187	3270566	DISTRACT_END	n/a	n/a	n/a	-999	20	[0, 0, 0]	n/a	0	1	0	n/a	n/a	0.0	0	0	0	FR2	1	R1030J
3020.366	1.364	3271753	REC_START	n/a	n/a	n/a	-999	20	[0, 0, 0]	n/a	0	1	0	n/a	n/a	0.0	0	0	0	FR2	1	R1030J
3021.73	1.137	3273117	REC_WORD	1.364	n/a	SAIL	-999	20	[0, 0, 0]	n/a	0	1	0	n/a	n/a	0.0	0	0	0	FR2	1	R1030J
3022.867	6.788	3274254	REC_WORD	2.501	n/a	BOY	-999	20	[0, 0, 0]	n/a	0	1	0	n/a	n/a	0.0	0	0	0	FR2	1	R1030J
3029.655	6.924	3281042	REC_WORD	9.289	n/a	LAWN	-999	20	[0, 0, 0]	n/a	0	1	0	n/a	n/a	0.0	0	0	0	FR2	1	R1030J
3036.579	10.459	3287966	REC_WORD	16.213	n/a	BLUSH	-999	20	[0, 0, 0]	n/a	0	1	0	n/a	n/a	0.0	0	0	0	FR2	1	R1030J
3047.038	3.341	3298425	REC_WORD	26.672	n/a	ICE	-999	20	[0, 0, 0]	n/a	0	1	0	n/a	n/a	0.0	0	0	0	FR2	1	R1030J
3050.379	2.19	3301766	REC_END	n/a	n/a	n/a	-999	20	[0, 0, 0]	n/a	0	1	0	n/a	n/a	0.0	0	0	0	FR2	1	R1030J
3052.569	0.0	3303956	TRIAL	n/a	n/a	n/a	-999	21	[0, 0, 0]	n/a	0	1	0	n/a	n/a	0.0	0	0	0	FR2	1	R1030J
3052.569	10.0	3303956	COUNTDOWN_START	n/a	n/a	n/a	-999	21	[0, 0, 0]	n/a	0	1	0	n/a	n/a	0.0	0	0	0	FR2	1	R1030J
3062.997	0.022	3314384	COUNTDOWN_END	n/a	n/a	n/a	-999	21	[0, 0, 0]	n/a	0	1	0	n/a	n/a	0.0	0	0	0	FR2	1	R1030J
3063.019	1.6	3314406	ORIENT	n/a	n/a	n/a	-999	21	[0, 0, 0]	n/a	0	1	0	n/a	n/a	0.0	0	0	0	FR2	1	R1030J
3065.415	4.6	3316802	STIM_ON	n/a	n/a	n/a	-999	21	[0, 0, 0]	n/a	1	1	4600	LQ1	LQ2	500.0	50	230	300	FR2	1	R1030J
3065.624	1.6	3317010	WORD	n/a	wordpools/wordpool_EN.txt	TOAD	1	21	[0, 0, 0]	n/a	1	1	4600	LQ1	LQ2	500.0	50	230	300	FR2	1	R1030J
3068.23	1.6	3319616	WORD	n/a	wordpools/wordpool_EN.txt	BARN	2	21	[0, 0, 0]	n/a	1	1	4600	LQ1	LQ2	500.0	50	230	300	FR2	1	R1030J
3070.834	1.6	3322220	WORD	n/a	wordpools/wordpool_EN.txt	FAN	3	21	[0, 0, 0]	n/a	0	1	0	n/a	n/a	0.0	0	0	0	FR2	1	R1030J
3073.221	1.6	3324607	WORD	n/a	wordpools/wordpool_EN.txt	POOL	4	21	[0, 0, 0]	n/a	0	1	0	n/a	n/a	0.0	0	0	0	FR2	1	R1030J
3075.498	4.6	3326884	STIM_ON	n/a	n/a	n/a	-999	21	[0, 0, 0]	n/a	1	1	4600	LQ1	LQ2	500.0	50	230	300	FR2	1	R1030J
3075.707	1.6	3327093	WORD	n/a	wordpools/wordpool_EN.txt	GATE	5	21	[0, 0, 0]	n/a	1	1	4600	LQ1	LQ2	500.0	50	230	300	FR2	1	R1030J
3078.095	1.6	3329481	WORD	n/a	wordpools/wordpool_EN.txt	STRING	6	21	[0, 0, 0]	n/a	1	1	4600	LQ1	LQ2	500.0	50	230	300	FR2	1	R1030J
3080.733	1.6	3332119	WORD	n/a	wordpools/wordpool_EN.txt	LAMP	7	21	[0, 0, 0]	n/a	0	1	0	n/a	n/a	0.0	0	0	0	FR2	1	R1030J
3083.338	1.6	3334724	WORD	n/a	wordpools/wordpool_EN.txt	YARD	8	21	[0, 0, 0]	n/a	0	1	0	n/a	n/a	0.0	0	0	0	FR2	1	R1030J
3085.535	4.6	3336921	STIM_ON	n/a	n/a	n/a	-999	21	[0, 0, 0]	n/a	1	1	4600	LQ1	LQ2	500.0	50	230	300	FR2	1	R1030J
3085.741	1.6	3337127	WORD	n/a	wordpools/wordpool_EN.txt	THREAD	9	21	[0, 0, 0]	n/a	1	1	4600	LQ1	LQ2	500.0	50	230	300	FR2	1	R1030J
3088.178	1.6	3339564	WORD	n/a	wordpools/wordpool_EN.txt	ROSE	10	21	[0, 0, 0]	n/a	1	1	4600	LQ1	LQ2	500.0	50	230	300	FR2	1	R1030J
3090.683	1.6	3342069	WORD	n/a	wordpools/wordpool_EN.txt	HILL	11	21	[0, 0, 0]	n/a	0	1	0	n/a	n/a	0.0	0	0	0	FR2	1	R1030J
3093.087	1.6	3344473	WORD	n/a	wordpools/wordpool_EN.txt	WHALE	12	21	[0, 0, 0]	n/a	0	1	0	n/a	n/a	0.0	0	0	0	FR2	1	R1030J
3094.706	0.002	3346092	DISTRACT_START	n/a	n/a	n/a	-999	21	[0, 0, 0]	n/a	0	1	0	n/a	n/a	0.0	0	0	0	FR2	1	R1030J
3094.708	0.015	3346094	START	n/a	n/a	n/a	-999	21	[-999, -999, -999]	n/a	0	1	0	n/a	n/a	0.0	0	0	0	FR2	1	R1030J
3094.723	3.956	3346109	PROB	3.927	n/a	n/a	-999	21	[2, 7, 8]	17	0	1	0	n/a	n/a	0.0	0	0	0	FR2	1	R1030J
3098.679	2.037	3350065	PROB	2.004	n/a	n/a	-999	21	[1, 5, 4]	10	0	1	0	n/a	n/a	0.0	0	0	0	FR2	1	R1030J
3100.716	4.475	3352102	PROB	4.446	n/a	n/a	-999	21	[5, 6, 2]	13	0	1	0	n/a	n/a	0.0	0	0	0	FR2	1	R1030J
3105.191	3.388	3356577	PROB	3.363	n/a	n/a	-999	21	[9, 6, 4]	19	0	1	0	n/a	n/a	0.0	0	0	0	FR2	1	R1030J
3108.579	3.172	3359965	PROB	3.143	n/a	n/a	-999	21	[6, 6, 5]	17	0	1	0	n/a	n/a	0.0	0	0	0	FR2	1	R1030J
3111.751	2.388	3363137	PROB	2.355	n/a	n/a	-999	21	[4, 4, 1]	9	0	1	0	n/a	n/a	0.0	0	0	0	FR2	1	R1030J
3114.139	4.08	3365525	PROB	4.08	n/a	n/a	-999	21	[2, 5, 9]	16	0	1	0	n/a	n/a	0.0	0	0	0	FR2	1	R1030J
3118.219	0.011	3369605	STOP	n/a	n/a	n/a	-999	21	[-999, -999, -999]	n/a	0	1	0	n/a	n/a	0.0	0	0	0	FR2	1	R1030J
3118.23	1.202	3369616	DISTRACT_END	n/a	n/a	n/a	-999	21	[0, 0, 0]	n/a	0	1	0	n/a	n/a	0.0	0	0	0	FR2	1	R1030J
3119.432	6.124	3370818	REC_START	n/a	n/a	n/a	-999	21	[0, 0, 0]	n/a	0	1	0	n/a	n/a	0.0	0	0	0	FR2	1	R1030J
3125.556	2.743	3376942	REC_WORD	6.124	n/a	GATE	-999	21	[0, 0, 0]	n/a	0	1	0	n/a	n/a	0.0	0	0	0	FR2	1	R1030J
3128.299	2.258	3379685	REC_WORD	8.867	n/a	BARN	-999	21	[0, 0, 0]	n/a	0	1	0	n/a	n/a	0.0	0	0	0	FR2	1	R1030J
3130.557	2.012	3381943	REC_WORD	11.125	n/a	FARM	-999	21	[0, 0, 0]	n/a	0	1	0	n/a	n/a	0.0	0	0	0	FR2	1	R1030J
3132.569	16.875	3383955	REC_WORD	13.137	n/a	STRING	-999	21	[0, 0, 0]	n/a	0	1	0	n/a	n/a	0.0	0	0	0	FR2	1	R1030J
3149.444	4.178	3400830	REC_END	n/a	n/a	n/a	-999	21	[0, 0, 0]	n/a	0	1	0	n/a	n/a	0.0	0	0	0	FR2	1	R1030J
3153.622	10.0	3405008	COUNTDOWN_START	n/a	n/a	n/a	-999	22	[0, 0, 0]	n/a	0	0	0	n/a	n/a	0.0	0	0	0	FR2	1	R1030J
3153.623	10.427	3405009	TRIAL	n/a	n/a	n/a	-999	22	[0, 0, 0]	n/a	0	0	0	n/a	n/a	0.0	0	0	0	FR2	1	R1030J
3164.05	0.023	3415436	COUNTDOWN_END	n/a	n/a	n/a	-999	22	[0, 0, 0]	n/a	0	0	0	n/a	n/a	0.0	0	0	0	FR2	1	R1030J
3164.073	1.6	3415459	ORIENT	n/a	n/a	n/a	-999	22	[0, 0, 0]	n/a	0	0	0	n/a	n/a	0.0	0	0	0	FR2	1	R1030J
3166.577	1.6	3417963	WORD	n/a	wordpools/wordpool_EN.txt	RAT	1	22	[0, 0, 0]	n/a	0	0	0	n/a	n/a	0.0	0	0	0	FR2	1	R1030J
3169.048	1.6	3420434	WORD	n/a	wordpools/wordpool_EN.txt	FORK	2	22	[0, 0, 0]	n/a	0	0	0	n/a	n/a	0.0	0	0	0	FR2	1	R1030J
3171.62	1.6	3423006	WORD	n/a	wordpools/wordpool_EN.txt	FLEA	3	22	[0, 0, 0]	n/a	0	0	0	n/a	n/a	0.0	0	0	0	FR2	1	R1030J
3174.006	1.6	3425392	WORD	n/a	wordpools/wordpool_EN.txt	SNAIL	4	22	[0, 0, 0]	n/a	0	0	0	n/a	n/a	0.0	0	0	0	FR2	1	R1030J
3176.56	1.6	3427945	WORD	n/a	wordpools/wordpool_EN.txt	CLOCK	5	22	[0, 0, 0]	n/a	0	0	0	n/a	n/a	0.0	0	0	0	FR2	1	R1030J
3179.131	1.6	3430516	WORD	n/a	wordpools/wordpool_EN.txt	ROCK	6	22	[0, 0, 0]	n/a	0	0	0	n/a	n/a	0.0	0	0	0	FR2	1	R1030J
3181.652	1.6	3433037	WORD	n/a	wordpools/wordpool_EN.txt	PASTE	7	22	[0, 0, 0]	n/a	0	0	0	n/a	n/a	0.0	0	0	0	FR2	1	R1030J
3184.107	1.6	3435492	WORD	n/a	wordpools/wordpool_EN.txt	DUCK	8	22	[0, 0, 0]	n/a	0	0	0	n/a	n/a	0.0	0	0	0	FR2	1	R1030J
3186.577	1.6	3437962	WORD	n/a	wordpools/wordpool_EN.txt	PIG	9	22	[0, 0, 0]	n/a	0	0	0	n/a	n/a	0.0	0	0	0	FR2	1	R1030J
3189.165	1.6	3440550	WORD	n/a	wordpools/wordpool_EN.txt	CALF	10	22	[0, 0, 0]	n/a	0	0	0	n/a	n/a	0.0	0	0	0	FR2	1	R1030J
3191.552	1.6	3442937	WORD	n/a	wordpools/wordpool_EN.txt	CAVE	11	22	[0, 0, 0]	n/a	0	0	0	n/a	n/a	0.0	0	0	0	FR2	1	R1030J
3194.173	1.6	3445558	WORD	n/a	wordpools/wordpool_EN.txt	TOY	12	22	[0, 0, 0]	n/a	0	0	0	n/a	n/a	0.0	0	0	0	FR2	1	R1030J
3195.793	0.001	3447178	DISTRACT_START	n/a	n/a	n/a	-999	22	[0, 0, 0]	n/a	0	0	0	n/a	n/a	0.0	0	0	0	FR2	1	R1030J
3195.794	0.016	3447179	START	n/a	n/a	n/a	-999	22	[-999, -999, -999]	n/a	0	0	0	n/a	n/a	0.0	0	0	0	FR2	1	R1030J
3195.81	2.771	3447195	PROB	2.749	n/a	n/a	-999	22	[7, 4, 3]	14	0	0	0	n/a	n/a	0.0	0	0	0	FR2	1	R1030J
3198.581	4.776	3449966	PROB	4.739	n/a	n/a	-999	22	[5, 8, 7]	20	0	0	0	n/a	n/a	0.0	0	0	0	FR2	1	R1030J
3203.357	5.257	3454742	PROB	5.227	n/a	n/a	-999	22	[3, 5, 9]	17	0	0	0	n/a	n/a	0.0	0	0	0	FR2	1	R1030J
3208.614	3.072	3459999	PROB	3.034	n/a	n/a	-999	22	[9, 6, 9]	24	0	0	0	n/a	n/a	0.0	0	0	0	FR2	1	R1030J
3211.686	3.489	3463071	PROB	3.458	n/a	n/a	-999	22	[9, 1, 3]	13	0	0	0	n/a	n/a	0.0	0	0	0	FR2	1	R1030J
3215.175	1.889	3466560	PROB	1.889	n/a	n/a	-999	22	[1, 5, 5]	11	0	0	0	n/a	n/a	0.0	0	0	0	FR2	1	R1030J
3217.064	0.015	3468449	STOP	n/a	n/a	n/a	-999	22	[-999, -999, -999]	n/a	0	0	0	n/a	n/a	0.0	0	0	0	FR2	1	R1030J
3217.079	1.136	3468464	DISTRACT_END	n/a	n/a	n/a	-999	22	[0, 0, 0]	n/a	0	0	0	n/a	n/a	0.0	0	0	0	FR2	1	R1030J
3218.215	1.835	3469600	REC_START	n/a	n/a	n/a	-999	22	[0, 0, 0]	n/a	0	0	0	n/a	n/a	0.0	0	0	0	FR2	1	R1030J
3220.05	0.459	3471435	REC_WORD_VV	1.835	n/a	<>	-999	22	[0, 0, 0]	n/a	0	0	0	n/a	n/a	0.0	0	0	0	FR2	1	R1030J
3220.509	1.431	3471894	REC_WORD	2.294	n/a	RAT	-999	22	[0, 0, 0]	n/a	0	0	0	n/a	n/a	0.0	0	0	0	FR2	1	R1030J
3221.94	1.28	3473325	REC_WORD	3.725	n/a	PIG	-999	22	[0, 0, 0]	n/a	0	0	0	n/a	n/a	0.0	0	0	0	FR2	1	R1030J
3223.22	11.2	3474605	REC_WORD	5.005	n/a	CALF	-999	22	[0, 0, 0]	n/a	0	0	0	n/a	n/a	0.0	0	0	0	FR2	1	R1030J
3234.42	9.262	3485805	REC_WORD	16.205	n/a	TOY	-999	22	[0, 0, 0]	n/a	0	0	0	n/a	n/a	0.0	0	0	0	FR2	1	R1030J
3243.682	4.556	3495067	REC_WORD	25.467	n/a	BEAR	-999	22	[0, 0, 0]	n/a	0	0	0	n/a	n/a	0.0	0	0	0	FR2	1	R1030J
3248.238	1.947	3499623	REC_END	n/a	n/a	n/a	-999	22	[0, 0, 0]	n/a	0	0	0	n/a	n/a	0.0	0	0	0	FR2	1	R1030J
3250.185	10.0	3501570	COUNTDOWN_START	n/a	n/a	n/a	-999	23	[0, 0, 0]	n/a	0	1	0	n/a	n/a	0.0	0	0	0	FR2	1	R1030J
3250.186	10.427	3501571	TRIAL	n/a	n/a	n/a	-999	23	[0, 0, 0]	n/a	0	1	0	n/a	n/a	0.0	0	0	0	FR2	1	R1030J
3260.613	0.006	3511998	COUNTDOWN_END	n/a	n/a	n/a	-999	23	[0, 0, 0]	n/a	0	1	0	n/a	n/a	0.0	0	0	0	FR2	1	R1030J
3260.619	1.6	3512004	ORIENT	n/a	n/a	n/a	-999	23	[0, 0, 0]	n/a	0	1	0	n/a	n/a	0.0	0	0	0	FR2	1	R1030J
3262.985	4.6	3514370	STIM_ON	n/a	n/a	n/a	-999	23	[0, 0, 0]	n/a	1	1	4600	LQ1	LQ2	500.0	50	230	300	FR2	1	R1030J
3263.191	1.6	3514576	WORD	n/a	wordpools/wordpool_EN.txt	SKUNK	1	23	[0, 0, 0]	n/a	1	1	4600	LQ1	LQ2	500.0	50	230	300	FR2	1	R1030J
3265.744	1.6	3517129	WORD	n/a	wordpools/wordpool_EN.txt	SHIP	2	23	[0, 0, 0]	n/a	1	1	4600	LQ1	LQ2	500.0	50	230	300	FR2	1	R1030J
3268.181	1.6	3519566	WORD	n/a	wordpools/wordpool_EN.txt	BREAD	3	23	[0, 0, 0]	n/a	0	1	0	n/a	n/a	0.0	0	0	0	FR2	1	R1030J
3270.802	1.6	3522187	WORD	n/a	wordpools/wordpool_EN.txt	BUSH	4	23	[0, 0, 0]	n/a	0	1	0	n/a	n/a	0.0	0	0	0	FR2	1	R1030J
3273.199	4.6	3524584	STIM_ON	n/a	n/a	n/a	-999	23	[0, 0, 0]	n/a	1	1	4600	LQ1	LQ2	500.0	50	230	300	FR2	1	R1030J
3273.408	1.6	3524793	WORD	n/a	wordpools/wordpool_EN.txt	CLOUD	5	23	[0, 0, 0]	n/a	1	1	4600	LQ1	LQ2	500.0	50	230	300	FR2	1	R1030J
3275.811	1.6	3527196	WORD	n/a	wordpools/wordpool_EN.txt	ROAD	6	23	[0, 0, 0]	n/a	1	1	4600	LQ1	LQ2	500.0	50	230	300	FR2	1	R1030J
3278.333	1.6	3529718	WORD	n/a	wordpools/wordpool_EN.txt	SLIME	7	23	[0, 0, 0]	n/a	0	1	0	n/a	n/a	0.0	0	0	0	FR2	1	R1030J
3280.953	1.6	3532338	WORD	n/a	wordpools/wordpool_EN.txt	LAMB	8	23	[0, 0, 0]	n/a	0	1	0	n/a	n/a	0.0	0	0	0	FR2	1	R1030J
3283.278	4.6	3534663	STIM_ON	n/a	n/a	n/a	-999	23	[0, 0, 0]	n/a	1	1	4600	LQ1	LQ2	500.0	50	230	300	FR2	1	R1030J
3283.49	1.6	3534875	WORD	n/a	wordpools/wordpool_EN.txt	HEART	9	23	[0, 0, 0]	n/a	1	1	4600	LQ1	LQ2	500.0	50	230	300	FR2	1	R1030J
3286.078	1.6	3537463	WORD	n/a	wordpools/wordpool_EN.txt	BRIDGE	10	23	[0, 0, 0]	n/a	1	1	4600	LQ1	LQ2	500.0	50	230	300	FR2	1	R1030J
3288.532	1.6	3539916	WORD	n/a	wordpools/wordpool_EN.txt	LEAF	11	23	[0, 0, 0]	n/a	0	1	0	n/a	n/a	0.0	0	0	0	FR2	1	R1030J
3291.036	1.6	3542420	WORD	n/a	wordpools/wordpool_EN.txt	PURSE	12	23	[0, 0, 0]	n/a	0	1	0	n/a	n/a	0.0	0	0	0	FR2	1	R1030J
3292.656	0.001	3544040	DISTRACT_START	n/a	n/a	n/a	-999	23	[0, 0, 0]	n/a	0	1	0	n/a	n/a	0.0	0	0	0	FR2	1	R1030J
3292.657	0.015	3544041	START	n/a	n/a	n/a	-999	23	[-999, -999, -999]	n/a	0	1	0	n/a	n/a	0.0	0	0	0	FR2	1	R1030J
3292.672	2.872	3544056	PROB	2.842	n/a	n/a	-999	23	[1, 9, 1]	11	0	1	0	n/a	n/a	0.0	0	0	0	FR2	1	R1030J
3295.544	1.821	3546928	PROB	1.787	n/a	n/a	-999	23	[1, 5, 1]	7	0	1	0	n/a	n/a	0.0	0	0	0	FR2	1	R1030J
3297.365	2.636	3548749	PROB	2.606	n/a	n/a	-999	23	[7, 4, 1]	12	0	1	0	n/a	n/a	0.0	0	0	0	FR2	1	R1030J
3300.001	4.192	3551385	PROB	4.161	n/a	n/a	-999	23	[6, 2, 3]	11	0	1	0	n/a	n/a	0.0	0	0	0	FR2	1	R1030J
3304.193	2.204	3555577	PROB	2.17	n/a	n/a	-999	23	[7, 7, 7]	21	0	1	0	n/a	n/a	0.0	0	0	0	FR2	1	R1030J
3306.397	3.671	3557781	PROB	3.637	n/a	n/a	-999	23	[7, 5, 1]	13	0	1	0	n/a	n/a	0.0	0	0	0	FR2	1	R1030J
3310.068	2.814	3561452	PROB	2.814	n/a	n/a	-999	23	[4, 8, 1]	13	0	1	0	n/a	n/a	0.0	0	0	0	FR2	1	R1030J
3312.882	0.008	3564266	STOP	n/a	n/a	n/a	-999	23	[-999, -999, -999]	n/a	0	1	0	n/a	n/a	0.0	0	0	0	FR2	1	R1030J
3312.89	1.219	3564274	DISTRACT_END	n/a	n/a	n/a	-999	23	[0, 0, 0]	n/a	0	1	0	n/a	n/a	0.0	0	0	0	FR2	1	R1030J
3314.109	2.284	3565493	REC_START	n/a	n/a	n/a	-999	23	[0, 0, 0]	n/a	0	1	0	n/a	n/a	0.0	0	0	0	FR2	1	R1030J
3316.393	12.222	3567777	REC_WORD	2.284	n/a	LEAF	-999	23	[0, 0, 0]	n/a	0	1	0	n/a	n/a	0.0	0	0	0	FR2	1	R1030J
3328.615	15.517	3579999	REC_WORD	14.506	n/a	LAMB	-999	23	[0, 0, 0]	n/a	0	1	0	n/a	n/a	0.0	0	0	0	FR2	1	R1030J
3344.132	2.198	3595516	REC_END	n/a	n/a	n/a	-999	23	[0, 0, 0]	n/a	0	1	0	n/a	n/a	0.0	0	0	0	FR2	1	R1030J
3346.33	10.0	3597714	COUNTDOWN_START	n/a	n/a	n/a	-999	24	[0, 0, 0]	n/a	0	1	0	n/a	n/a	0.0	0	0	0	FR2	1	R1030J
3346.331	10.427	3597715	TRIAL	n/a	n/a	n/a	-999	24	[0, 0, 0]	n/a	0	1	0	n/a	n/a	0.0	0	0	0	FR2	1	R1030J
3356.758	0.006	3608142	COUNTDOWN_END	n/a	n/a	n/a	-999	24	[0, 0, 0]	n/a	0	1	0	n/a	n/a	0.0	0	0	0	FR2	1	R1030J
3356.764	1.6	3608148	ORIENT	n/a	n/a	n/a	-999	24	[0, 0, 0]	n/a	0	1	0	n/a	n/a	0.0	0	0	0	FR2	1	R1030J
3359.066	4.6	3610450	STIM_ON	n/a	n/a	n/a	-999	24	[0, 0, 0]	n/a	1	1	4600	LQ1	LQ2	500.0	50	230	300	FR2	1	R1030J
3359.286	1.6	3610670	WORD	n/a	wordpools/wordpool_EN.txt	CLOTH	1	24	[0, 0, 0]	n/a	1	1	4600	LQ1	LQ2	500.0	50	230	300	FR2	1	R1030J
3361.839	1.6	3613223	WORD	n/a	wordpools/wordpool_EN.txt	LAKE	2	24	[0, 0, 0]	n/a	1	1	4600	LQ1	LQ2	500.0	50	230	300	FR2	1	R1030J
3364.344	1.6	3615728	WORD	n/a	wordpools/wordpool_EN.txt	KITE	3	24	[0, 0, 0]	n/a	0	1	0	n/a	n/a	0.0	0	0	0	FR2	1	R1030J
3366.914	1.6	3618298	WORD	n/a	wordpools/wordpool_EN.txt	MOUSE	4	24	[0, 0, 0]	n/a	0	1	0	n/a	n/a	0.0	0	0	0	FR2	1	R1030J
3369.149	4.6	3620533	STIM_ON	n/a	n/a	n/a	-999	24	[0, 0, 0]	n/a	1	1	4600	LQ1	LQ2	500.0	50	230	300	FR2	1	R1030J
3369.369	1.6	3620753	WORD	n/a	wordpools/wordpool_EN.txt	SNOW	5	24	[0, 0, 0]	n/a	1	1	4600	LQ1	LQ2	500.0	50	230	300	FR2	1	R1030J
3372.006	1.6	3623390	WORD	n/a	wordpools/wordpool_EN.txt	MULE	6	24	[0, 0, 0]	n/a	1	1	4600	LQ1	LQ2	500.0	50	230	300	FR2	1	R1030J
3374.56	1.6	3625944	WORD	n/a	wordpools/wordpool_EN.txt	JEEP	7	24	[0, 0, 0]	n/a	0	1	0	n/a	n/a	0.0	0	0	0	FR2	1	R1030J
3377.031	1.6	3628415	WORD	n/a	wordpools/wordpool_EN.txt	DOCK	8	24	[0, 0, 0]	n/a	0	1	0	n/a	n/a	0.0	0	0	0	FR2	1	R1030J
3379.425	4.6	3630809	STIM_ON	n/a	n/a	n/a	-999	24	[0, 0, 0]	n/a	1	1	4600	LQ1	LQ2	500.0	50	230	300	FR2	1	R1030J
3379.636	1.6	3631020	WORD	n/a	wordpools/wordpool_EN.txt	DESK	9	24	[0, 0, 0]	n/a	1	1	4600	LQ1	LQ2	500.0	50	230	300	FR2	1	R1030J
3382.156	1.6	3633540	WORD	n/a	wordpools/wordpool_EN.txt	STAR	10	24	[0, 0, 0]	n/a	1	1	4600	LQ1	LQ2	500.0	50	230	300	FR2	1	R1030J
3384.727	1.6	3636111	WORD	n/a	wordpools/wordpool_EN.txt	COUCH	11	24	[0, 0, 0]	n/a	0	1	0	n/a	n/a	0.0	0	0	0	FR2	1	R1030J
3387.216	1.6	3638600	WORD	n/a	wordpools/wordpool_EN.txt	BOOT	12	24	[0, 0, 0]	n/a	0	1	0	n/a	n/a	0.0	0	0	0	FR2	1	R1030J
3388.834	0.002	3640218	DISTRACT_START	n/a	n/a	n/a	-999	24	[0, 0, 0]	n/a	0	1	0	n/a	n/a	0.0	0	0	0	FR2	1	R1030J
3388.836	0.015	3640220	START	n/a	n/a	n/a	-999	24	[-999, -999, -999]	n/a	0	1	0	n/a	n/a	0.0	0	0	0	FR2	1	R1030J
3388.851	2.905	3640235	PROB	2.871	n/a	n/a	-999	24	[3, 2, 4]	9	0	1	0	n/a	n/a	0.0	0	0	0	FR2	1	R1030J
3391.756	4.257	3643140	PROB	4.222	n/a	n/a	-999	24	[7, 8, 5]	20	0	1	0	n/a	n/a	0.0	0	0	0	FR2	1	R1030J
3396.013	2.705	3647397	PROB	2.677	n/a	n/a	-999	24	[4, 6, 1]	11	0	1	0	n/a	n/a	0.0	0	0	0	FR2	1	R1030J
3398.718	2.187	3650101	PROB	2.164	n/a	n/a	-999	24	[4, 2, 2]	8	0	1	0	n/a	n/a	0.0	0	0	0	FR2	1	R1030J
3400.905	2.604	3652288	PROB	2.577	n/a	n/a	-999	24	[6, 3, 7]	16	0	1	0	n/a	n/a	0.0	0	0	0	FR2	1	R1030J
3403.509	2.02	3654892	PROB	1.989	n/a	n/a	-999	24	[5, 5, 2]	12	0	1	0	n/a	n/a	0.0	0	0	0	FR2	1	R1030J
3405.529	2.672	3656912	PROB	2.641	n/a	n/a	-999	24	[8, 4, 8]	20	0	1	0	n/a	n/a	0.0	0	0	0	FR2	1	R1030J
3408.201	5.918	3659584	PROB	5.918	n/a	n/a	-999	24	[8, 7, 9]	24	0	1	0	n/a	n/a	0.0	0	0	0	FR2	1	R1030J
3414.119	0.008	3665502	STOP	n/a	n/a	n/a	-999	24	[-999, -999, -999]	n/a	0	1	0	n/a	n/a	0.0	0	0	0	FR2	1	R1030J
3414.127	1.203	3665510	DISTRACT_END	n/a	n/a	n/a	-999	24	[0, 0, 0]	n/a	0	1	0	n/a	n/a	0.0	0	0	0	FR2	1	R1030J
3415.33	9.838	3666713	REC_START	n/a	n/a	n/a	-999	24	[0, 0, 0]	n/a	0	1	0	n/a	n/a	0.0	0	0	0	FR2	1	R1030J
3425.168	1.879	3676551	REC_WORD	9.838	n/a	MULE	-999	24	[0, 0, 0]	n/a	0	1	0	n/a	n/a	0.0	0	0	0	FR2	1	R1030J
3427.047	6.408	3678430	REC_WORD	11.717	n/a	MOUSE	-999	24	[0, 0, 0]	n/a	0	1	0	n/a	n/a	0.0	0	0	0	FR2	1	R1030J
3433.455	8.892	3684838	REC_WORD	18.125	n/a	GRASS	-999	24	[0, 0, 0]	n/a	0	1	0	n/a	n/a	0.0	0	0	0	FR2	1	R1030J
3442.347	3.01	3693730	REC_WORD	27.017	n/a	STAR	-999	24	[0, 0, 0]	n/a	0	1	0	n/a	n/a	0.0	0	0	0	FR2	1	R1030J
3445.357	4.78	3696740	REC_END	n/a	n/a	n/a	-999	24	[0, 0, 0]	n/a	0	1	0	n/a	n/a	0.0	0	0	0	FR2	1	R1030J
3450.137	10.0	3701520	COUNTDOWN_START	n/a	n/a	n/a	-999	25	[0, 0, 0]	n/a	0	1	0	n/a	n/a	0.0	0	0	0	FR2	1	R1030J
3450.138	10.427	3701521	TRIAL	n/a	n/a	n/a	-999	25	[0, 0, 0]	n/a	0	1	0	n/a	n/a	0.0	0	0	0	FR2	1	R1030J
3460.565	0.007	3711948	COUNTDOWN_END	n/a	n/a	n/a	-999	25	[0, 0, 0]	n/a	0	1	0	n/a	n/a	0.0	0	0	0	FR2	1	R1030J
3460.572	1.6	3711955	ORIENT	n/a	n/a	n/a	-999	25	[0, 0, 0]	n/a	0	1	0	n/a	n/a	0.0	0	0	0	FR2	1	R1030J
3462.97	4.6	3714353	STIM_ON	n/a	n/a	n/a	-999	25	[0, 0, 0]	n/a	1	1	4600	LQ1	LQ2	500.0	50	230	300	FR2	1	R1030J
3463.176	1.6	3714559	WORD	n/a	wordpools/wordpool_EN.txt	JUDGE	1	25	[0, 0, 0]	n/a	1	1	4600	LQ1	LQ2	500.0	50	230	300	FR2	1	R1030J
3465.714	1.6	3717097	WORD	n/a	wordpools/wordpool_EN.txt	SOCK	2	25	[0, 0, 0]	n/a	1	1	4600	LQ1	LQ2	500.0	50	230	300	FR2	1	R1030J
3468.084	1.6	3719467	WORD	n/a	wordpools/wordpool_EN.txt	FISH	3	25	[0, 0, 0]	n/a	0	1	0	n/a	n/a	0.0	0	0	0	FR2	1	R1030J
3470.589	1.6	3721972	WORD	n/a	wordpools/wordpool_EN.txt	PLANE	4	25	[0, 0, 0]	n/a	0	1	0	n/a	n/a	0.0	0	0	0	FR2	1	R1030J
3472.865	4.6	3724248	STIM_ON	n/a	n/a	n/a	-999	25	[0, 0, 0]	n/a	1	1	4600	LQ1	LQ2	500.0	50	230	300	FR2	1	R1030J
3473.076	1.6	3724459	WORD	n/a	wordpools/wordpool_EN.txt	SCHOOL	5	25	[0, 0, 0]	n/a	1	1	4600	LQ1	LQ2	500.0	50	230	300	FR2	1	R1030J
3475.63	1.6	3727013	WORD	n/a	wordpools/wordpool_EN.txt	THUMB	6	25	[0, 0, 0]	n/a	1	1	4600	LQ1	LQ2	500.0	50	230	300	FR2	1	R1030J
3478.236	1.6	3729619	WORD	n/a	wordpools/wordpool_EN.txt	SPOON	7	25	[0, 0, 0]	n/a	0	1	0	n/a	n/a	0.0	0	0	0	FR2	1	R1030J
3480.772	1.6	3732155	WORD	n/a	wordpools/wordpool_EN.txt	BATH	8	25	[0, 0, 0]	n/a	0	1	0	n/a	n/a	0.0	0	0	0	FR2	1	R1030J
3483.188	4.6	3734571	STIM_ON	n/a	n/a	n/a	-999	25	[0, 0, 0]	n/a	1	1	4600	LQ1	LQ2	500.0	50	230	300	FR2	1	R1030J
3483.394	1.6	3734777	WORD	n/a	wordpools/wordpool_EN.txt	SALT	9	25	[0, 0, 0]	n/a	1	1	4600	LQ1	LQ2	500.0	50	230	300	FR2	1	R1030J
3485.881	1.6	3737264	WORD	n/a	wordpools/wordpool_EN.txt	STORE	10	25	[0, 0, 0]	n/a	1	1	4600	LQ1	LQ2	500.0	50	230	300	FR2	1	R1030J
3488.286	1.6	3739669	WORD	n/a	wordpools/wordpool_EN.txt	CORN	11	25	[0, 0, 0]	n/a	0	1	0	n/a	n/a	0.0	0	0	0	FR2	1	R1030J
3490.722	1.6	3742105	WORD	n/a	wordpools/wordpool_EN.txt	CUBE	12	25	[0, 0, 0]	n/a	0	1	0	n/a	n/a	0.0	0	0	0	FR2	1	R1030J
3492.326	0.001	3743709	DISTRACT_START	n/a	n/a	n/a	-999	25	[0, 0, 0]	n/a	0	1	0	n/a	n/a	0.0	0	0	0	FR2	1	R1030J
3492.327	0.032	3743710	START	n/a	n/a	n/a	-999	25	[-999, -999, -999]	n/a	0	1	0	n/a	n/a	0.0	0	0	0	FR2	1	R1030J
3492.359	2.922	3743742	PROB	2.895	n/a	n/a	-999	25	[3, 1, 6]	10	0	1	0	n/a	n/a	0.0	0	0	0	FR2	1	R1030J
3495.281	2.77	3746664	PROB	2.732	n/a	n/a	-999	25	[2, 5, 7]	14	0	1	0	n/a	n/a	0.0	0	0	0	FR2	1	R1030J
3498.051	2.455	3749434	PROB	2.434	n/a	n/a	-999	25	[5, 1, 7]	13	0	1	0	n/a	n/a	0.0	0	0	0	FR2	1	R1030J
3500.506	2.237	3751889	PROB	2.203	n/a	n/a	-999	25	[2, 5, 2]	9	0	1	0	n/a	n/a	0.0	0	0	0	FR2	1	R1030J
3502.743	3.54	3754126	PROB	3.503	n/a	n/a	-999	25	[9, 4, 8]	21	0	1	0	n/a	n/a	0.0	0	0	0	FR2	1	R1030J
3506.283	3.94	3757666	PROB	3.915	n/a	n/a	-999	25	[7, 9, 5]	21	0	1	0	n/a	n/a	0.0	0	0	0	FR2	1	R1030J
3510.223	2.679	3761605	PROB	2.679	n/a	n/a	-999	25	[7, 4, 3]	14	0	1	0	n/a	n/a	0.0	0	0	0	FR2	1	R1030J
3512.902	0.008	3764284	STOP	n/a	n/a	n/a	-999	25	[-999, -999, -999]	n/a	0	1	0	n/a	n/a	0.0	0	0	0	FR2	1	R1030J
3512.91	1.069	3764292	DISTRACT_END	n/a	n/a	n/a	-999	25	[0, 0, 0]	n/a	0	1	0	n/a	n/a	0.0	0	0	0	FR2	1	R1030J
3513.979	5.73	3765361	REC_START	n/a	n/a	n/a	-999	25	[0, 0, 0]	n/a	0	1	0	n/a	n/a	0.0	0	0	0	FR2	1	R1030J
3519.709	2.339	3771091	REC_WORD	5.73	n/a	JUDGE	-999	25	[0, 0, 0]	n/a	0	1	0	n/a	n/a	0.0	0	0	0	FR2	1	R1030J
3522.048	7.187	3773430	REC_WORD	8.069	n/a	SPOON	-999	25	[0, 0, 0]	n/a	0	1	0	n/a	n/a	0.0	0	0	0	FR2	1	R1030J
3529.235	1.604	3780617	REC_WORD	15.256	n/a	BUSH	-999	25	[0, 0, 0]	n/a	0	1	0	n/a	n/a	0.0	0	0	0	FR2	1	R1030J
3530.839	13.155	3782221	REC_WORD	16.86	n/a	PLANE	-999	25	[0, 0, 0]	n/a	0	1	0	n/a	n/a	0.0	0	0	0	FR2	1	R1030J
3543.994	102.157	3795376	REC_END	n/a	n/a	n/a	-999	25	[0, 0, 0]	n/a	0	1	0	n/a	n/a	0.0	0	0	0	FR2	1	R1030J
3646.151	0.0	3897532	SESS_END	n/a	n/a	n/a	-999	25	[0, 0, 0]	n/a	0	1	0	n/a	n/a	0.0	0	0	0	FR2	1	R1030J
